## w(eV)         sigma(Sm^-1)     kappa(W(mK)^-1)        L12/e(Am^-1)      L22/e^2(Wm^-1)
    0.01              549563             857.172        -1.14307e+07         3.18954e+08
    0.03              549559             857.162        -1.14306e+07         3.18953e+08
    0.05              549550              857.14        -1.14305e+07         3.18949e+08
    0.07              549537             857.108        -1.14303e+07         3.18945e+08
    0.09              549519             857.065        -1.14301e+07         3.18938e+08
    0.11              549497             857.011        -1.14298e+07          3.1893e+08
    0.13              549471             856.947        -1.14294e+07          3.1892e+08
    0.15              549440             856.871         -1.1429e+07         3.18909e+08
    0.17              549405             856.785        -1.14285e+07         3.18896e+08
    0.19              549366             856.688        -1.14279e+07         3.18881e+08
    0.21              549322             856.581        -1.14273e+07         3.18865e+08
    0.23              549274             856.463        -1.14267e+07         3.18847e+08
    0.25              549222             856.334         -1.1426e+07         3.18828e+08
    0.27              549165             856.194        -1.14252e+07         3.18806e+08
    0.29              549103             856.044        -1.14243e+07         3.18784e+08
    0.31              549038             855.883        -1.14234e+07         3.18759e+08
    0.33              548968             855.711        -1.14225e+07         3.18733e+08
    0.35              548893             855.528        -1.14215e+07         3.18706e+08
    0.37              548815             855.335        -1.14204e+07         3.18676e+08
    0.39              548732             855.131        -1.14192e+07         3.18646e+08
    0.41              548644             854.917         -1.1418e+07         3.18613e+08
    0.43              548552             854.691        -1.14168e+07         3.18579e+08
    0.45              548456             854.455        -1.14154e+07         3.18543e+08
    0.47              548355             854.209        -1.14141e+07         3.18506e+08
    0.49              548250             853.952        -1.14126e+07         3.18467e+08
    0.51              548141             853.684        -1.14111e+07         3.18426e+08
    0.53              548027             853.406        -1.14095e+07         3.18384e+08
    0.55              547909             853.117        -1.14079e+07          3.1834e+08
    0.57              547787             852.817        -1.14062e+07         3.18294e+08
    0.59              547660             852.507        -1.14045e+07         3.18247e+08
    0.61              547529             852.186        -1.14027e+07         3.18198e+08
    0.63              547393             851.855        -1.14008e+07         3.18148e+08
    0.65              547253             851.513        -1.13989e+07         3.18096e+08
    0.67              547109             851.161        -1.13969e+07         3.18042e+08
    0.69              546960             850.798        -1.13948e+07         3.17986e+08
    0.71              546807             850.425        -1.13927e+07         3.17929e+08
    0.73              546650             850.041        -1.13905e+07         3.17871e+08
    0.75              546488             849.647        -1.13883e+07          3.1781e+08
    0.77              546322             849.242         -1.1386e+07         3.17749e+08
    0.79              546152             848.827        -1.13836e+07         3.17685e+08
    0.81              545977             848.401        -1.13812e+07          3.1762e+08
    0.83              545798             847.965        -1.13787e+07         3.17553e+08
    0.85              545615             847.519        -1.13762e+07         3.17484e+08
    0.87              545427             847.062        -1.13736e+07         3.17414e+08
    0.89              545235             846.595        -1.13709e+07         3.17342e+08
    0.91              545038             846.118        -1.13682e+07         3.17269e+08
    0.93              544837             845.631        -1.13654e+07         3.17194e+08
    0.95              544632             845.133        -1.13626e+07         3.17117e+08
    0.97              544422             844.625        -1.13597e+07         3.17039e+08
    0.99              544209             844.106        -1.13567e+07         3.16959e+08
    1.01              543990             843.578        -1.13536e+07         3.16877e+08
    1.03              543768             843.039        -1.13506e+07         3.16793e+08
    1.05              543541              842.49        -1.13474e+07         3.16708e+08
    1.07              543310             841.931        -1.13442e+07         3.16622e+08
    1.09              543074             841.362        -1.13409e+07         3.16533e+08
    1.11              542834             840.782        -1.13375e+07         3.16443e+08
    1.13              542590             840.193        -1.13341e+07         3.16352e+08
    1.15              542342             839.594        -1.13307e+07         3.16258e+08
    1.17              542089             838.984        -1.13271e+07         3.16163e+08
    1.19              541831             838.365        -1.13235e+07         3.16067e+08
    1.21              541570             837.735        -1.13199e+07         3.15968e+08
    1.23              541304             837.096        -1.13162e+07         3.15868e+08
    1.25              541034             836.447        -1.13124e+07         3.15767e+08
    1.27              540760             835.788        -1.13085e+07         3.15663e+08
    1.29              540481             835.119        -1.13046e+07         3.15558e+08
    1.31              540198              834.44        -1.13006e+07         3.15452e+08
    1.33              539910             833.751        -1.12966e+07         3.15343e+08
    1.35              539619             833.053        -1.12925e+07         3.15233e+08
    1.37              539323             832.344        -1.12883e+07         3.15122e+08
    1.39              539022             831.626        -1.12841e+07         3.15008e+08
    1.41              538718             830.899        -1.12798e+07         3.14893e+08
    1.43              538409             830.161        -1.12755e+07         3.14777e+08
    1.45              538096             829.414        -1.12711e+07         3.14658e+08
    1.47              537778             828.658        -1.12666e+07         3.14538e+08
    1.49              537457             827.892         -1.1262e+07         3.14416e+08
    1.51              537131             827.116        -1.12574e+07         3.14293e+08
    1.53              536800             826.331        -1.12527e+07         3.14168e+08
    1.55              536466             825.536         -1.1248e+07         3.14041e+08
    1.57              536127             824.732        -1.12432e+07         3.13912e+08
    1.59              535784             823.918        -1.12383e+07         3.13782e+08
    1.61              535436             823.095        -1.12334e+07          3.1365e+08
    1.63              535085             822.263        -1.12284e+07         3.13516e+08
    1.65              534729             821.421        -1.12234e+07         3.13381e+08
    1.67              534368             820.571        -1.12182e+07         3.13244e+08
    1.69              534004              819.71         -1.1213e+07         3.13105e+08
    1.71              533635             818.841        -1.12078e+07         3.12965e+08
    1.73              533262             817.962        -1.12025e+07         3.12822e+08
    1.75              532885             817.075        -1.11971e+07         3.12679e+08
    1.77              532504             816.178        -1.11916e+07         3.12533e+08
    1.79              532118             815.272        -1.11861e+07         3.12386e+08
    1.81              531728             814.357        -1.11805e+07         3.12237e+08
    1.83              531334             813.433        -1.11749e+07         3.12086e+08
    1.85              530935               812.5        -1.11692e+07         3.11933e+08
    1.87              530533             811.558        -1.11634e+07         3.11779e+08
    1.89              530126             810.608        -1.11575e+07         3.11623e+08
    1.91              529715             809.648        -1.11516e+07         3.11466e+08
    1.93              529299              808.68        -1.11457e+07         3.11306e+08
    1.95              528880             807.702        -1.11396e+07         3.11145e+08
    1.97              528456             806.716        -1.11335e+07         3.10982e+08
    1.99              528028             805.722        -1.11273e+07         3.10818e+08
    2.01              527596             804.719        -1.11211e+07         3.10652e+08
    2.03              527160             803.707        -1.11148e+07         3.10484e+08
    2.05              526719             802.686        -1.11084e+07         3.10314e+08
    2.07              526274             801.657        -1.11019e+07         3.10142e+08
    2.09              525825              800.62        -1.10954e+07         3.09969e+08
    2.11              525372             799.574        -1.10889e+07         3.09794e+08
    2.13              524915             798.519        -1.10822e+07         3.09618e+08
    2.15              524454             797.456        -1.10755e+07         3.09439e+08
    2.17              523988             796.385        -1.10687e+07         3.09259e+08
    2.19              523518             795.306        -1.10619e+07         3.09077e+08
    2.21              523044             794.218        -1.10549e+07         3.08893e+08
    2.23              522566             793.122         -1.1048e+07         3.08708e+08
    2.25              522084             792.018        -1.10409e+07         3.08521e+08
    2.27              521597             790.906        -1.10338e+07         3.08332e+08
    2.29              521107             789.786        -1.10266e+07         3.08141e+08
    2.31              520612             788.657        -1.10193e+07         3.07948e+08
    2.33              520113             787.521         -1.1012e+07         3.07754e+08
    2.35              519611             786.377        -1.10046e+07         3.07558e+08
    2.37              519103             785.224        -1.09972e+07          3.0736e+08
    2.39              518592             784.064        -1.09896e+07         3.07161e+08
    2.41              518077             782.896         -1.0982e+07         3.06959e+08
    2.43              517558             781.721        -1.09744e+07         3.06756e+08
    2.45              517034             780.537        -1.09666e+07         3.06551e+08
    2.47              516507             779.346        -1.09588e+07         3.06345e+08
    2.49              515975             778.147        -1.09509e+07         3.06136e+08
    2.51              515439             776.941         -1.0943e+07         3.05926e+08
    2.53              514899             775.727         -1.0935e+07         3.05714e+08
    2.55              514355             774.506        -1.09269e+07           3.055e+08
    2.57              513807             773.277        -1.09187e+07         3.05285e+08
    2.59              513255              772.04        -1.09105e+07         3.05067e+08
    2.61              512699             770.797        -1.09022e+07         3.04848e+08
    2.63              512139             769.546        -1.08938e+07         3.04627e+08
    2.65              511575             768.287        -1.08854e+07         3.04404e+08
    2.67              511007             767.022        -1.08769e+07          3.0418e+08
    2.69              510434             765.749        -1.08683e+07         3.03953e+08
    2.71              509858             764.469        -1.08597e+07         3.03725e+08
    2.73              509278             763.182         -1.0851e+07         3.03495e+08
    2.75              508693             761.889        -1.08422e+07         3.03263e+08
    2.77              508105             760.588        -1.08333e+07          3.0303e+08
    2.79              507513              759.28        -1.08244e+07         3.02794e+08
    2.81              506916             757.965        -1.08154e+07         3.02557e+08
    2.83              506316             756.643        -1.08063e+07         3.02318e+08
    2.85              505712             755.315        -1.07972e+07         3.02077e+08
    2.87              505104             753.979         -1.0788e+07         3.01835e+08
    2.89              504491             752.637        -1.07787e+07          3.0159e+08
    2.91              503875             751.289        -1.07693e+07         3.01344e+08
    2.93              503255             749.934        -1.07599e+07         3.01096e+08
    2.95              502631             748.572        -1.07504e+07         3.00846e+08
    2.97              502003             747.204        -1.07408e+07         3.00594e+08
    2.99              501371             745.829        -1.07312e+07          3.0034e+08
    3.01              500735             744.448        -1.07215e+07         3.00085e+08
    3.03              500095              743.06        -1.07117e+07         2.99828e+08
    3.05              499452             741.666        -1.07018e+07         2.99569e+08
    3.07              498804             740.266        -1.06919e+07         2.99308e+08
    3.09              498152              738.86        -1.06819e+07         2.99045e+08
    3.11              497497             737.447        -1.06718e+07          2.9878e+08
    3.13              496838             736.029        -1.06616e+07         2.98514e+08
    3.15              496175             734.604        -1.06514e+07         2.98246e+08
    3.17              495508             733.173        -1.06411e+07         2.97976e+08
    3.19              494837             731.737        -1.06308e+07         2.97704e+08
    3.21              494162             730.294        -1.06203e+07          2.9743e+08
    3.23              493484             728.846        -1.06098e+07         2.97154e+08
    3.25              492801             727.391        -1.05992e+07         2.96877e+08
    3.27              492115             725.931        -1.05886e+07         2.96597e+08
    3.29              491425             724.466        -1.05778e+07         2.96316e+08
    3.31              490731             722.994         -1.0567e+07         2.96033e+08
    3.33              490034             721.517        -1.05561e+07         2.95748e+08
    3.35              489332             720.035        -1.05452e+07         2.95461e+08
    3.37              488627             718.547        -1.05342e+07         2.95172e+08
    3.39              487918             717.053        -1.05231e+07         2.94882e+08
    3.41              487206             715.554        -1.05119e+07          2.9459e+08
    3.43              486489              714.05        -1.05006e+07         2.94295e+08
    3.45              485769              712.54        -1.04893e+07         2.93999e+08
    3.47              485045             711.026        -1.04779e+07         2.93701e+08
    3.49              484318             709.505        -1.04665e+07         2.93401e+08
    3.51              483586              707.98        -1.04549e+07           2.931e+08
    3.53              482851              706.45        -1.04433e+07         2.92796e+08
    3.55              482112             704.915        -1.04316e+07         2.92491e+08
    3.57              481370             703.374        -1.04199e+07         2.92183e+08
    3.59              480624             701.829         -1.0408e+07         2.91874e+08
    3.61              479874             700.279        -1.03961e+07         2.91563e+08
    3.63              479121             698.724        -1.03841e+07          2.9125e+08
    3.65              478364             697.164        -1.03721e+07         2.90935e+08
    3.67              477603             695.599        -1.03599e+07         2.90618e+08
    3.69              476839              694.03        -1.03477e+07           2.903e+08
    3.71              476071             692.456        -1.03354e+07         2.89979e+08
    3.73              475300             690.878        -1.03231e+07         2.89657e+08
    3.75              474525             689.295        -1.03107e+07         2.89333e+08
    3.77              473746             687.707        -1.02982e+07         2.89007e+08
    3.79              472964             686.115        -1.02856e+07         2.88679e+08
    3.81              472178             684.519        -1.02729e+07         2.88349e+08
    3.83              471389             682.918        -1.02602e+07         2.88017e+08
    3.85              470596             681.313        -1.02474e+07         2.87683e+08
    3.87              469799             679.704        -1.02345e+07         2.87348e+08
    3.89              468999             678.091        -1.02216e+07          2.8701e+08
    3.91              468196             676.473        -1.02085e+07         2.86671e+08
    3.93              467389             674.852        -1.01954e+07          2.8633e+08
    3.95              466579             673.226        -1.01823e+07         2.85987e+08
    3.97              465765             671.597         -1.0169e+07         2.85642e+08
    3.99              464948             669.963        -1.01557e+07         2.85295e+08
    4.01              464127             668.326        -1.01423e+07         2.84946e+08
    4.03              463303             666.685        -1.01288e+07         2.84596e+08
    4.05              462476              665.04        -1.01153e+07         2.84243e+08
    4.07              461645             663.391        -1.01017e+07         2.83889e+08
    4.09              460810             661.739         -1.0088e+07         2.83532e+08
    4.11              459973             660.083        -1.00742e+07         2.83174e+08
    4.13              459131             658.424        -1.00604e+07         2.82814e+08
    4.15              458287             656.761        -1.00464e+07         2.82452e+08
    4.17              457439             655.094        -1.00325e+07         2.82088e+08
    4.19              456588             653.424        -1.00184e+07         2.81722e+08
    4.21              455734             651.751        -1.00042e+07         2.81355e+08
    4.23              454876             650.075        -9.99003e+06         2.80985e+08
    4.25              454015             648.395        -9.97574e+06         2.80614e+08
    4.27              453151             646.712        -9.96138e+06         2.80241e+08
    4.29              452283             645.026        -9.94694e+06         2.79865e+08
    4.31              451413             643.337        -9.93243e+06         2.79488e+08
    4.33              450539             641.645        -9.91785e+06         2.79109e+08
    4.35              449661             639.949        -9.90319e+06         2.78728e+08
    4.37              448781             638.251        -9.88845e+06         2.78346e+08
    4.39              447897              636.55        -9.87365e+06         2.77961e+08
    4.41              447011             634.846        -9.85877e+06         2.77574e+08
    4.43              446121             633.139        -9.84381e+06         2.77186e+08
    4.45              445228              631.43        -9.82878e+06         2.76796e+08
    4.47              444332             629.718        -9.81368e+06         2.76403e+08
    4.49              443432             628.003         -9.7985e+06         2.76009e+08
    4.51              442530             626.285        -9.78325e+06         2.75613e+08
    4.53              441624             624.565        -9.76793e+06         2.75216e+08
    4.55              440716             622.843        -9.75254e+06         2.74816e+08
    4.57              439804             621.118        -9.73707e+06         2.74414e+08
    4.59              438889              619.39        -9.72152e+06         2.74011e+08
    4.61              437972             617.661        -9.70591e+06         2.73606e+08
    4.63              437051             615.929        -9.69022e+06         2.73198e+08
    4.65              436127             614.194        -9.67446e+06         2.72789e+08
    4.67              435201             612.458        -9.65862e+06         2.72378e+08
    4.69              434271             610.719        -9.64272e+06         2.71965e+08
    4.71              433339             608.979        -9.62674e+06         2.71551e+08
    4.73              432403             607.236        -9.61069e+06         2.71134e+08
    4.75              431465             605.491        -9.59456e+06         2.70716e+08
    4.77              430523             603.744        -9.57837e+06         2.70296e+08
    4.79              429579             601.995         -9.5621e+06         2.69873e+08
    4.81              428632             600.245        -9.54576e+06         2.69449e+08
    4.83              427682             598.492        -9.52934e+06         2.69024e+08
    4.85              426729             596.738        -9.51286e+06         2.68596e+08
    4.87              425774             594.982         -9.4963e+06         2.68166e+08
    4.89              424816             593.225        -9.47968e+06         2.67735e+08
    4.91              423854             591.466        -9.46298e+06         2.67302e+08
    4.93              422891             589.705        -9.44621e+06         2.66867e+08
    4.95              421924             587.942        -9.42937e+06          2.6643e+08
    4.97              420955             586.179        -9.41246e+06         2.65991e+08
    4.99              419982             584.413        -9.39548e+06          2.6555e+08
    5.01              419008             582.647        -9.37842e+06         2.65108e+08
    5.03              418030             580.879         -9.3613e+06         2.64663e+08
    5.05              417050             579.109        -9.34411e+06         2.64217e+08
    5.07              416068             577.339        -9.32684e+06         2.63769e+08
    5.09              415082             575.567        -9.30951e+06          2.6332e+08
    5.11              414094             573.794        -9.29211e+06         2.62868e+08
    5.13              413104              572.02        -9.27464e+06         2.62415e+08
    5.15              412111             570.245        -9.25709e+06          2.6196e+08
    5.17              411115             568.469        -9.23948e+06         2.61503e+08
    5.19              410117             566.692         -9.2218e+06         2.61044e+08
    5.21              409116             564.914        -9.20406e+06         2.60583e+08
    5.23              408113             563.135        -9.18624e+06         2.60121e+08
    5.25              407108             561.355        -9.16835e+06         2.59657e+08
    5.27              406099             559.575         -9.1504e+06         2.59191e+08
    5.29              405089             557.793        -9.13238e+06         2.58723e+08
    5.31              404076             556.011        -9.11429e+06         2.58253e+08
    5.33              403061             554.229        -9.09614e+06         2.57782e+08
    5.35              402043             552.445        -9.07791e+06         2.57309e+08
    5.37              401023             550.661        -9.05962e+06         2.56834e+08
    5.39              400001             548.877        -9.04127e+06         2.56357e+08
    5.41              398976             547.092        -9.02284e+06         2.55879e+08
    5.43              397949             545.307        -9.00435e+06         2.55399e+08
    5.45              396920             543.521         -8.9858e+06         2.54917e+08
    5.47              395889             541.735        -8.96718e+06         2.54433e+08
    5.49              394855             539.949        -8.94849e+06         2.53948e+08
    5.51              393819             538.162        -8.92974e+06         2.53461e+08
    5.53              392781             536.375        -8.91092e+06         2.52972e+08
    5.55              391741             534.588        -8.89204e+06         2.52481e+08
    5.57              390698             532.801        -8.87309e+06         2.51989e+08
    5.59              389654             531.013        -8.85408e+06         2.51495e+08
    5.61              388607             529.226        -8.83501e+06         2.50999e+08
    5.63              387559             527.439        -8.81587e+06         2.50502e+08
    5.65              386508             525.651        -8.79667e+06         2.50003e+08
    5.67              385455             523.864         -8.7774e+06         2.49502e+08
    5.69              384400             522.077        -8.75808e+06         2.48999e+08
    5.71              383344              520.29        -8.73869e+06         2.48495e+08
    5.73              382285             518.503        -8.71924e+06         2.47989e+08
    5.75              381224             516.717        -8.69972e+06         2.47482e+08
    5.77              380162              514.93        -8.68015e+06         2.46973e+08
    5.79              379097             513.144        -8.66051e+06         2.46462e+08
    5.81              378031             511.359        -8.64082e+06         2.45949e+08
    5.83              376963             509.573        -8.62106e+06         2.45435e+08
    5.85              375892             507.789        -8.60124e+06         2.44919e+08
    5.87              374821             506.004        -8.58137e+06         2.44402e+08
    5.89              373747              504.22        -8.56143e+06         2.43883e+08
    5.91              372671             502.437        -8.54143e+06         2.43362e+08
    5.93              371594             500.655        -8.52138e+06          2.4284e+08
    5.95              370515             498.873        -8.50127e+06         2.42316e+08
    5.97              369435             497.091        -8.48109e+06         2.41791e+08
    5.99              368352             495.311        -8.46086e+06         2.41264e+08
    6.01              367268             493.531        -8.44058e+06         2.40735e+08
    6.03              366183             491.752        -8.42024e+06         2.40205e+08
    6.05              365096             489.974        -8.39984e+06         2.39673e+08
    6.07              364007             488.196        -8.37938e+06          2.3914e+08
    6.09              362917              486.42        -8.35887e+06         2.38605e+08
    6.11              361825             484.644         -8.3383e+06         2.38069e+08
    6.13              360731              482.87        -8.31768e+06         2.37531e+08
    6.15              359637             481.096          -8.297e+06         2.36991e+08
    6.17              358540             479.324        -8.27627e+06          2.3645e+08
    6.19              357443             477.553        -8.25548e+06         2.35908e+08
    6.21              356344             475.783        -8.23464e+06         2.35364e+08
    6.23              355243             474.014        -8.21375e+06         2.34819e+08
    6.25              354141             472.246         -8.1928e+06         2.34272e+08
    6.27              353038             470.479        -8.17181e+06         2.33723e+08
    6.29              351934             468.714        -8.15076e+06         2.33173e+08
    6.31              350828              466.95        -8.12966e+06         2.32622e+08
    6.33              349721             465.187         -8.1085e+06         2.32069e+08
    6.35              348612             463.426         -8.0873e+06         2.31515e+08
    6.37              347503             461.666        -8.06605e+06          2.3096e+08
    6.39              346392             459.908        -8.04475e+06         2.30403e+08
    6.41              345280             458.151         -8.0234e+06         2.29844e+08
    6.43              344167             456.396        -8.00199e+06         2.29284e+08
    6.45              343053             454.642        -7.98055e+06         2.28723e+08
    6.47              341938              452.89        -7.95905e+06          2.2816e+08
    6.49              340822              451.14        -7.93751e+06         2.27596e+08
    6.51              339705             449.391        -7.91591e+06         2.27031e+08
    6.53              338587             447.644        -7.89428e+06         2.26464e+08
    6.55              337467             445.899        -7.87259e+06         2.25896e+08
    6.57              336347             444.155        -7.85086e+06         2.25327e+08
    6.59              335226             442.413        -7.82909e+06         2.24757e+08
    6.61              334104             440.673        -7.80727e+06         2.24185e+08
    6.63              332981             438.935        -7.78541e+06         2.23611e+08
    6.65              331858             437.199         -7.7635e+06         2.23037e+08
    6.67              330733             435.465        -7.74155e+06         2.22461e+08
    6.69              329608             433.733        -7.71956e+06         2.21884e+08
    6.71              328482             432.002        -7.69752e+06         2.21306e+08
    6.73              327355             430.274        -7.67545e+06         2.20726e+08
    6.75              326228             428.548        -7.65333e+06         2.20145e+08
    6.77              325100             426.824        -7.63117e+06         2.19563e+08
    6.79              323971             425.102        -7.60897e+06          2.1898e+08
    6.81              322841             423.383        -7.58674e+06         2.18396e+08
    6.83              321711             421.665        -7.56446e+06          2.1781e+08
    6.85              320581              419.95        -7.54215e+06         2.17223e+08
    6.87              319449             418.237        -7.51979e+06         2.16636e+08
    6.89              318318             416.526         -7.4974e+06         2.16046e+08
    6.91              317185             414.818        -7.47498e+06         2.15456e+08
    6.93              316053             413.112        -7.45251e+06         2.14865e+08
    6.95              314920             411.408        -7.43001e+06         2.14273e+08
    6.97              313786             409.707        -7.40748e+06         2.13679e+08
    6.99              312652             408.008        -7.38491e+06         2.13085e+08
    7.01              311518             406.312         -7.3623e+06         2.12489e+08
    7.03              310384             404.618        -7.33967e+06         2.11892e+08
    7.05              309249             402.927          -7.317e+06         2.11295e+08
    7.07              308114             401.238        -7.29429e+06         2.10696e+08
    7.09              306978             399.552        -7.27156e+06         2.10096e+08
    7.11              305843             397.869        -7.24879e+06         2.09495e+08
    7.13              304707             396.188          -7.226e+06         2.08893e+08
    7.15              303571              394.51        -7.20317e+06         2.08291e+08
    7.17              302435             392.835        -7.18031e+06         2.07687e+08
    7.19              301299             391.162        -7.15743e+06         2.07082e+08
    7.21              300163             389.492        -7.13451e+06         2.06477e+08
    7.23              299026             387.825        -7.11157e+06          2.0587e+08
    7.25              297890             386.161         -7.0886e+06         2.05263e+08
    7.27              296754               384.5        -7.06561e+06         2.04654e+08
    7.29              295618             382.841        -7.04259e+06         2.04045e+08
    7.31              294481             381.185        -7.01954e+06         2.03435e+08
    7.33              293345             379.533        -6.99647e+06         2.02824e+08
    7.35              292209             377.883        -6.97337e+06         2.02212e+08
    7.37              291074             376.237        -6.95025e+06           2.016e+08
    7.39              289938             374.593        -6.92711e+06         2.00986e+08
    7.41              288803             372.952        -6.90395e+06         2.00372e+08
    7.43              287668             371.315        -6.88076e+06         1.99757e+08
    7.45              286533              369.68        -6.85755e+06         1.99142e+08
    7.47              285398             368.049        -6.83432e+06         1.98525e+08
    7.49              284264             366.421        -6.81107e+06         1.97908e+08
    7.51              283130             364.796        -6.78781e+06          1.9729e+08
    7.53              281997             363.174        -6.76452e+06         1.96671e+08
    7.55              280863             361.556        -6.74122e+06         1.96052e+08
    7.57              279731              359.94        -6.71789e+06         1.95432e+08
    7.59              278599             358.328        -6.69456e+06         1.94811e+08
    7.61              277467              356.72         -6.6712e+06          1.9419e+08
    7.63              276336             355.114        -6.64783e+06         1.93568e+08
    7.65              275205             353.512        -6.62445e+06         1.92946e+08
    7.67              274075             351.914        -6.60105e+06         1.92323e+08
    7.69              272946             350.318        -6.57763e+06         1.91699e+08
    7.71              271817             348.727        -6.55421e+06         1.91075e+08
    7.73              270689             347.138        -6.53077e+06          1.9045e+08
    7.75              269562             345.553        -6.50732e+06         1.89824e+08
    7.77              268435             343.972        -6.48386e+06         1.89199e+08
    7.79              267309             342.394        -6.46039e+06         1.88572e+08
    7.81              266184              340.82        -6.43691e+06         1.87945e+08
    7.83              265060             339.249        -6.41342e+06         1.87318e+08
    7.85              263936             337.682        -6.38993e+06          1.8669e+08
    7.87              262814             336.119        -6.36642e+06         1.86062e+08
    7.89              261692             334.559        -6.34291e+06         1.85433e+08
    7.91              260571             333.003        -6.31939e+06         1.84804e+08
    7.93              259452              331.45        -6.29587e+06         1.84175e+08
    7.95              258333             329.902        -6.27234e+06         1.83545e+08
    7.97              257215             328.356        -6.24881e+06         1.82915e+08
    7.99              256098             326.815        -6.22527e+06         1.82285e+08
    8.01              254983             325.278        -6.20173e+06         1.81654e+08
    8.03              253868             323.744        -6.17819e+06         1.81023e+08
    8.05              252755             322.214        -6.15465e+06         1.80392e+08
    8.07              251642             320.688         -6.1311e+06          1.7976e+08
    8.09              250531             319.166        -6.10756e+06         1.79128e+08
    8.11              249421             317.648        -6.08401e+06         1.78496e+08
    8.13              248313             316.133        -6.06047e+06         1.77864e+08
    8.15              247205             314.623        -6.03693e+06         1.77231e+08
    8.17              246099             313.116        -6.01339e+06         1.76598e+08
    8.19              244995             311.614        -5.98986e+06         1.75966e+08
    8.21              243891             310.115        -5.96633e+06         1.75333e+08
    8.23              242789             308.621         -5.9428e+06         1.74699e+08
    8.25              241689              307.13        -5.91928e+06         1.74066e+08
    8.27              240590             305.644        -5.89576e+06         1.73433e+08
    8.29              239492             304.162        -5.87225e+06         1.72799e+08
    8.31              238396             302.683        -5.84875e+06         1.72166e+08
    8.33              237301             301.209        -5.82526e+06         1.71533e+08
    8.35              236208             299.739        -5.80177e+06         1.70899e+08
    8.37              235116             298.273         -5.7783e+06         1.70265e+08
    8.39              234027             296.811        -5.75483e+06         1.69632e+08
    8.41              232938             295.354        -5.73138e+06         1.68998e+08
    8.43              231852             293.901        -5.70793e+06         1.68365e+08
    8.45              230767             292.451         -5.6845e+06         1.67732e+08
    8.47              229683             291.007        -5.66108e+06         1.67098e+08
    8.49              228602             289.566        -5.63768e+06         1.66465e+08
    8.51              227522              288.13        -5.61429e+06         1.65832e+08
    8.53              226444             286.698        -5.59091e+06         1.65199e+08
    8.55              225368              285.27        -5.56755e+06         1.64566e+08
    8.57              224294             283.847         -5.5442e+06         1.63934e+08
    8.59              223222             282.428        -5.52088e+06         1.63301e+08
    8.61              222151             281.013        -5.49757e+06         1.62669e+08
    8.63              221083             279.603        -5.47427e+06         1.62037e+08
    8.65              220016             278.197          -5.451e+06         1.61405e+08
    8.67              218951             276.796        -5.42775e+06         1.60774e+08
    8.69              217889             275.399        -5.40451e+06         1.60143e+08
    8.71              216828             274.006         -5.3813e+06         1.59512e+08
    8.73              215770             272.618        -5.35811e+06         1.58881e+08
    8.75              214713             271.234        -5.33494e+06         1.58251e+08
    8.77              213659             269.855         -5.3118e+06         1.57621e+08
    8.79              212607             268.481        -5.28867e+06         1.56992e+08
    8.81              211557             267.111        -5.26558e+06         1.56362e+08
    8.83              210509             265.745         -5.2425e+06         1.55734e+08
    8.85              209463             264.384        -5.21946e+06         1.55105e+08
    8.87              208420             263.028        -5.19644e+06         1.54478e+08
    8.89              207379             261.676        -5.17344e+06          1.5385e+08
    8.91              206340             260.329        -5.15048e+06         1.53223e+08
    8.93              205304             258.987        -5.12754e+06         1.52597e+08
    8.95              204269             257.649        -5.10463e+06         1.51971e+08
    8.97              203238             256.316        -5.08175e+06         1.51346e+08
    8.99              202208             254.987         -5.0589e+06         1.50721e+08
    9.01              201181             253.664        -5.03609e+06         1.50097e+08
    9.03              200157             252.345         -5.0133e+06         1.49473e+08
    9.05              199134              251.03        -4.99055e+06          1.4885e+08
    9.07              198115             249.721        -4.96783e+06         1.48227e+08
    9.09              197098             248.416        -4.94514e+06         1.47606e+08
    9.11              196083             247.116        -4.92249e+06         1.46984e+08
    9.13              195071              245.82        -4.89987e+06         1.46364e+08
    9.15              194062              244.53        -4.87729e+06         1.45744e+08
    9.17              193055             243.244        -4.85474e+06         1.45125e+08
    9.19              192050             241.963        -4.83223e+06         1.44507e+08
    9.21              191049             240.687        -4.80976e+06         1.43889e+08
    9.23              190050             239.416        -4.78733e+06         1.43272e+08
    9.25              189054             238.149        -4.76493e+06         1.42656e+08
    9.27              188060             236.888        -4.74258e+06         1.42041e+08
    9.29              187069             235.631        -4.72026e+06         1.41427e+08
    9.31              186081             234.379        -4.69799e+06         1.40813e+08
    9.33              185096             233.132        -4.67575e+06           1.402e+08
    9.35              184114              231.89        -4.65356e+06         1.39589e+08
    9.37              183134             230.653        -4.63141e+06         1.38978e+08
    9.39              182157             229.421        -4.60931e+06         1.38367e+08
    9.41              181183             228.194        -4.58724e+06         1.37758e+08
    9.43              180212             226.972        -4.56523e+06          1.3715e+08
    9.45              179244             225.755        -4.54325e+06         1.36543e+08
    9.47              178279             224.543        -4.52133e+06         1.35937e+08
    9.49              177317             223.335        -4.49945e+06         1.35331e+08
    9.51              176358             222.133        -4.47761e+06         1.34727e+08
    9.53              175401             220.936        -4.45582e+06         1.34124e+08
    9.55              174448             219.744        -4.43408e+06         1.33521e+08
    9.57              173498             218.557        -4.41239e+06          1.3292e+08
    9.59              172551             217.375        -4.39075e+06          1.3232e+08
    9.61              171607             216.198        -4.36916e+06         1.31721e+08
    9.63              170666             215.026        -4.34762e+06         1.31123e+08
    9.65              169728             213.859        -4.32613e+06         1.30526e+08
    9.67              168793             212.697        -4.30469e+06         1.29931e+08
    9.69              167861              211.54         -4.2833e+06         1.29336e+08
    9.71              166933             210.389        -4.26197e+06         1.28743e+08
    9.73              166008             209.242        -4.24068e+06         1.28151e+08
    9.75              165085             208.101        -4.21946e+06          1.2756e+08
    9.77              164167             206.965        -4.19828e+06          1.2697e+08
    9.79              163251             205.834        -4.17716e+06         1.26382e+08
    9.81              162339             204.708         -4.1561e+06         1.25795e+08
    9.83              161429             203.587        -4.13509e+06         1.25209e+08
    9.85              160524             202.472        -4.11414e+06         1.24624e+08
    9.87              159621             201.361        -4.09325e+06         1.24041e+08
    9.89              158722             200.256        -4.07241e+06         1.23459e+08
    9.91              157826             199.156        -4.05163e+06         1.22878e+08
    9.93              156933             198.061        -4.03091e+06         1.22299e+08
    9.95              156044             196.972        -4.01025e+06         1.21721e+08
    9.97              155159             195.887        -3.98964e+06         1.21144e+08
    9.99              154276             194.808         -3.9691e+06         1.20569e+08
   10.01              153397             193.734        -3.94862e+06         1.19995e+08
   10.03              152522             192.666         -3.9282e+06         1.19422e+08
   10.05              151650             191.602        -3.90784e+06         1.18851e+08
   10.07              150781             190.544        -3.88754e+06         1.18282e+08
   10.09              149916             189.491         -3.8673e+06         1.17714e+08
   10.11              149054             188.443        -3.84713e+06         1.17147e+08
   10.13              148196             187.401        -3.82702e+06         1.16582e+08
   10.15              147342             186.364        -3.80698e+06         1.16019e+08
   10.17              146490             185.332          -3.787e+06         1.15457e+08
   10.19              145643             184.306        -3.76708e+06         1.14896e+08
   10.21              144799             183.284        -3.74723e+06         1.14337e+08
   10.23              143959             182.268        -3.72745e+06          1.1378e+08
   10.25              143122             181.258        -3.70773e+06         1.13224e+08
   10.27              142289             180.252        -3.68808e+06          1.1267e+08
   10.29              141459             179.252        -3.66849e+06         1.12117e+08
   10.31              140633             178.258        -3.64897e+06         1.11566e+08
   10.33              139811             177.268        -3.62952e+06         1.11017e+08
   10.35              138992             176.284        -3.61014e+06         1.10469e+08
   10.37              138177             175.306        -3.59083e+06         1.09923e+08
   10.39              137365             174.332        -3.57159e+06         1.09378e+08
   10.41              136558             173.364        -3.55241e+06         1.08836e+08
   10.43              135754             172.401        -3.53331e+06         1.08295e+08
   10.45              134953             171.444        -3.51427e+06         1.07755e+08
   10.47              134157             170.492        -3.49531e+06         1.07218e+08
   10.49              133364             169.545        -3.47642e+06         1.06682e+08
   10.51              132575             168.604         -3.4576e+06         1.06148e+08
   10.53              131789             167.668        -3.43885e+06         1.05615e+08
   10.55              131008             166.738        -3.42017e+06         1.05085e+08
   10.57              130230             165.813        -3.40157e+06         1.04556e+08
   10.59              129456             164.893        -3.38304e+06         1.04029e+08
   10.61              128685             163.978        -3.36458e+06         1.03504e+08
   10.63              127919             163.069        -3.34619e+06          1.0298e+08
   10.65              127156             162.165        -3.32788e+06         1.02459e+08
   10.67              126397             161.267        -3.30965e+06         1.01939e+08
   10.69              125642             160.374        -3.29149e+06         1.01421e+08
   10.71              124890             159.487         -3.2734e+06         1.00905e+08
   10.73              124143             158.604        -3.25539e+06         1.00391e+08
   10.75              123399             157.728        -3.23745e+06         9.98786e+07
   10.77              122659             156.856        -3.21959e+06         9.93682e+07
   10.79              121923              155.99        -3.20181e+06         9.88597e+07
   10.81              121191             155.129         -3.1841e+06         9.83531e+07
   10.83              120463             154.274        -3.16647e+06         9.78484e+07
   10.85              119738             153.424        -3.14892e+06         9.73457e+07
   10.87              119018              152.58        -3.13144e+06         9.68449e+07
   10.89              118301              151.74        -3.11404e+06         9.63461e+07
   10.91              117588             150.907        -3.09672e+06         9.58492e+07
   10.93              116879             150.078        -3.07948e+06         9.53543e+07
   10.95              116174             149.255        -3.06232e+06         9.48613e+07
   10.97              115473             148.438        -3.04523e+06         9.43704e+07
   10.99              114775             147.625        -3.02823e+06         9.38814e+07
   11.01              114082             146.818         -3.0113e+06         9.33945e+07
   11.03              113393             146.017        -2.99445e+06         9.29095e+07
   11.05              112707             145.221        -2.97768e+06         9.24266e+07
   11.07              112025              144.43        -2.96099e+06         9.19457e+07
   11.09              111347             143.645        -2.94439e+06         9.14668e+07
   11.11              110674             142.865        -2.92786e+06           9.099e+07
   11.13              110004              142.09        -2.91141e+06         9.05153e+07
   11.15              109338             141.321        -2.89504e+06         9.00426e+07
   11.17              108676             140.557        -2.87875e+06         8.95719e+07
   11.19              108017             139.798        -2.86255e+06         8.91034e+07
   11.21              107363             139.045        -2.84643e+06         8.86369e+07
   11.23              106713             138.297        -2.83038e+06         8.81725e+07
   11.25              106066             137.554        -2.81442e+06         8.77102e+07
   11.27              105424             136.817        -2.79854e+06           8.725e+07
   11.29              104785             136.085        -2.78274e+06         8.67919e+07
   11.31              104151             135.359        -2.76703e+06         8.63359e+07
   11.33              103520             134.637        -2.75139e+06         8.58821e+07
   11.35              102893             133.921        -2.73584e+06         8.54304e+07
   11.37              102270             133.211        -2.72037e+06         8.49808e+07
   11.39              101652             132.506        -2.70499e+06         8.45333e+07
   11.41              101037             131.806        -2.68968e+06          8.4088e+07
   11.43              100426             131.111        -2.67446e+06         8.36448e+07
   11.45             99818.4             130.421        -2.65932e+06         8.32038e+07
   11.47             99215.2             129.737        -2.64427e+06          8.2765e+07
   11.49             98615.9             129.059         -2.6293e+06         8.23283e+07
   11.51             98020.6             128.385        -2.61441e+06         8.18938e+07
   11.53             97429.1             127.717         -2.5996e+06         8.14614e+07
   11.55             96841.6             127.054        -2.58488e+06         8.10312e+07
   11.57               96258             126.396        -2.57024e+06         8.06033e+07
   11.59             95678.3             125.743        -2.55568e+06         8.01775e+07
   11.61             95102.5             125.096        -2.54121e+06         7.97538e+07
   11.63             94530.6             124.454        -2.52682e+06         7.93324e+07
   11.65             93962.6             123.817        -2.51252e+06         7.89132e+07
   11.67             93398.5             123.186         -2.4983e+06         7.84962e+07
   11.69             92838.3             122.559        -2.48416e+06         7.80814e+07
   11.71             92281.9             121.938        -2.47011e+06         7.76688e+07
   11.73             91729.5             121.322        -2.45614e+06         7.72584e+07
   11.75               91181             120.711        -2.44225e+06         7.68502e+07
   11.77             90636.3             120.105        -2.42845e+06         7.64442e+07
   11.79             90095.5             119.505        -2.41473e+06         7.60405e+07
   11.81             89558.5              118.91         -2.4011e+06          7.5639e+07
   11.83             89025.4             118.319        -2.38755e+06         7.52397e+07
   11.85             88496.2             117.734        -2.37408e+06         7.48426e+07
   11.87             87970.8             117.154         -2.3607e+06         7.44477e+07
   11.89             87449.3             116.579         -2.3474e+06         7.40551e+07
   11.91             86931.5              116.01        -2.33418e+06         7.36647e+07
   11.93             86417.7             115.445        -2.32105e+06         7.32766e+07
   11.95             85907.6             114.885        -2.30801e+06         7.28906e+07
   11.97             85401.4             114.331        -2.29504e+06         7.25069e+07
   11.99             84898.9             113.781        -2.28216e+06         7.21255e+07
   12.01             84400.3             113.237        -2.26937e+06         7.17463e+07
   12.03             83905.5             112.697        -2.25665e+06         7.13693e+07
   12.05             83414.4             112.163        -2.24402e+06         7.09945e+07
   12.07             82927.1             111.634        -2.23148e+06          7.0622e+07
   12.09             82443.6             111.109        -2.21902e+06         7.02517e+07
   12.11             81963.9              110.59        -2.20664e+06         6.98837e+07
   12.13             81487.9             110.075        -2.19434e+06         6.95179e+07
   12.15             81015.6             109.566        -2.18213e+06         6.91544e+07
   12.17             80547.1             109.061           -2.17e+06          6.8793e+07
   12.19             80082.3             108.561        -2.15795e+06          6.8434e+07
   12.21             79621.3             108.067        -2.14599e+06         6.80771e+07
   12.23             79163.9             107.577        -2.13411e+06         6.77225e+07
   12.25             78710.3             107.092        -2.12231e+06         6.73701e+07
   12.27             78260.3             106.611        -2.11059e+06           6.702e+07
   12.29               77814             106.136        -2.09896e+06         6.66721e+07
   12.31             77371.4             105.666        -2.08741e+06         6.63264e+07
   12.33             76932.5               105.2        -2.07594e+06         6.59829e+07
   12.35             76497.2             104.739        -2.06455e+06         6.56417e+07
   12.37             76065.5             104.283        -2.05325e+06         6.53027e+07
   12.39             75637.5             103.831        -2.04203e+06         6.49659e+07
   12.41               75213             103.385        -2.03088e+06         6.46314e+07
   12.43             74792.2             102.943        -2.01982e+06          6.4299e+07
   12.45               74375             102.506        -2.00885e+06         6.39689e+07
   12.47             73961.4             102.073        -1.99795e+06          6.3641e+07
   12.49             73551.3             101.645        -1.98713e+06         6.33153e+07
   12.51             73144.8             101.222        -1.97639e+06         6.29918e+07
   12.53             72741.8             100.804        -1.96574e+06         6.26706e+07
   12.55             72342.4              100.39        -1.95516e+06         6.23515e+07
   12.57             71946.5             99.9806        -1.94467e+06         6.20346e+07
   12.59             71554.2             99.5758        -1.93425e+06         6.17199e+07
   12.61             71165.3             99.1757        -1.92392e+06         6.14074e+07
   12.63             70779.9               98.78        -1.91366e+06         6.10971e+07
   12.65               70398             98.3889        -1.90349e+06          6.0789e+07
   12.67             70019.5             98.0023        -1.89339e+06         6.04831e+07
   12.69             69644.5             97.6202        -1.88337e+06         6.01793e+07
   12.71             69272.9             97.2425        -1.87344e+06         5.98778e+07
   12.73             68904.8             96.8693        -1.86358e+06         5.95783e+07
   12.75               68540             96.5005        -1.85379e+06         5.92811e+07
   12.77             68178.7              96.136        -1.84409e+06          5.8986e+07
   12.79             67820.7              95.776        -1.83446e+06         5.86931e+07
   12.81             67466.1             95.4203        -1.82492e+06         5.84023e+07
   12.83             67114.8             95.0689        -1.81545e+06         5.81136e+07
   12.85             66766.9             94.7219        -1.80605e+06         5.78272e+07
   12.87             66422.3             94.3791        -1.79674e+06         5.75428e+07
   12.89             66081.1             94.0406         -1.7875e+06         5.72606e+07
   12.91             65743.1             93.7063        -1.77833e+06         5.69805e+07
   12.93             65408.4             93.3763        -1.76925e+06         5.67025e+07
   12.95             65076.9             93.0504        -1.76023e+06         5.64266e+07
   12.97             64748.8             92.7287         -1.7513e+06         5.61528e+07
   12.99             64423.8             92.4112        -1.74244e+06         5.58812e+07
   13.01             64102.1             92.0978        -1.73365e+06         5.56116e+07
   13.03             63783.6             91.7885        -1.72494e+06         5.53441e+07
   13.05             63468.2             91.4832        -1.71631e+06         5.50787e+07
   13.07             63156.1              91.182        -1.70774e+06         5.48154e+07
   13.09             62847.1             90.8848        -1.69926e+06         5.45542e+07
   13.11             62541.3             90.5917        -1.69084e+06          5.4295e+07
   13.13             62238.5             90.3025         -1.6825e+06         5.40379e+07
   13.15             61938.9             90.0172        -1.67424e+06         5.37828e+07
   13.17             61642.4             89.7359        -1.66604e+06         5.35298e+07
   13.19               61349             89.4585        -1.65792e+06         5.32788e+07
   13.21             61058.6             89.1849        -1.64987e+06         5.30299e+07
   13.23             60771.3             88.9152        -1.64189e+06          5.2783e+07
   13.25               60487             88.6493        -1.63398e+06         5.25381e+07
   13.27             60205.8             88.3872        -1.62615e+06         5.22952e+07
   13.29             59927.5             88.1289        -1.61838e+06         5.20543e+07
   13.31             59652.2             87.8743        -1.61069e+06         5.18154e+07
   13.33             59379.9             87.6234        -1.60307e+06         5.15784e+07
   13.35             59110.5             87.3762        -1.59551e+06         5.13435e+07
   13.37             58844.1             87.1327        -1.58803e+06         5.11106e+07
   13.39             58580.5             86.8928        -1.58061e+06         5.08796e+07
   13.41             58319.9             86.6565        -1.57327e+06         5.06505e+07
   13.43             58062.2             86.4238        -1.56599e+06         5.04234e+07
   13.45             57807.3             86.1946        -1.55878e+06         5.01983e+07
   13.47             57555.3              85.969        -1.55164e+06          4.9975e+07
   13.49               57306             85.7468        -1.54457e+06         4.97537e+07
   13.51             57059.7             85.5282        -1.53756e+06         4.95344e+07
   13.53             56816.1             85.3129        -1.53062e+06         4.93169e+07
   13.55             56575.2             85.1011        -1.52375e+06         4.91013e+07
   13.57             56337.2             84.8926        -1.51695e+06         4.88876e+07
   13.59             56101.9             84.6875         -1.5102e+06         4.86758e+07
   13.61             55869.3             84.4857        -1.50353e+06         4.84659e+07
   13.63             55639.4             84.2872        -1.49692e+06         4.82578e+07
   13.65             55412.2              84.092        -1.49038e+06         4.80516e+07
   13.67             55187.7                83.9        -1.48389e+06         4.78472e+07
   13.69             54965.8             83.7113        -1.47748e+06         4.76447e+07
   13.71             54746.6             83.5257        -1.47113e+06          4.7444e+07
   13.73               54530             83.3432        -1.46484e+06         4.72451e+07
   13.75               54316             83.1639        -1.45861e+06         4.70481e+07
   13.77             54104.5             82.9877        -1.45245e+06         4.68528e+07
   13.79             53895.7             82.8145        -1.44634e+06         4.66593e+07
   13.81             53689.3             82.6444         -1.4403e+06         4.64676e+07
   13.83             53485.5             82.4773        -1.43433e+06         4.62777e+07
   13.85             53284.3             82.3131        -1.42841e+06         4.60895e+07
   13.87             53085.5             82.1519        -1.42255e+06         4.59031e+07
   13.89             52889.2             81.9936        -1.41676e+06         4.57184e+07
   13.91             52695.3             81.8382        -1.41102e+06         4.55355e+07
   13.93             52503.9             81.6857        -1.40534e+06         4.53543e+07
   13.95             52314.9             81.5359        -1.39972e+06         4.51748e+07
   13.97             52128.3              81.389        -1.39417e+06          4.4997e+07
   13.99               51944             81.2449        -1.38866e+06         4.48209e+07
   14.01             51762.2             81.1035        -1.38322e+06         4.46465e+07
   14.03             51582.7             80.9648        -1.37784e+06         4.44738e+07
   14.05             51405.5             80.8287        -1.37251e+06         4.43027e+07
   14.07             51230.6             80.6954        -1.36724e+06         4.41333e+07
   14.09               51058             80.5646        -1.36203e+06         4.39655e+07
   14.11             50887.7             80.4365        -1.35687e+06         4.37994e+07
   14.13             50719.6             80.3109        -1.35176e+06         4.36349e+07
   14.15             50553.8             80.1878        -1.34672e+06          4.3472e+07
   14.17             50390.2             80.0673        -1.34172e+06         4.33107e+07
   14.19             50228.8             79.9492        -1.33679e+06          4.3151e+07
   14.21             50069.6             79.8336         -1.3319e+06         4.29929e+07
   14.23             49912.5             79.7203        -1.32707e+06         4.28363e+07
   14.25             49757.6             79.6095         -1.3223e+06         4.26814e+07
   14.27             49604.8              79.501        -1.31757e+06         4.25279e+07
   14.29             49454.1             79.3949         -1.3129e+06          4.2376e+07
   14.31             49305.5              79.291        -1.30828e+06         4.22257e+07
   14.33             49158.9             79.1895        -1.30371e+06         4.20769e+07
   14.35             49014.4             79.0901         -1.2992e+06         4.19295e+07
   14.37               48872              78.993        -1.29473e+06         4.17837e+07
   14.39             48731.5             78.8981        -1.29032e+06         4.16394e+07
   14.41             48593.1             78.8053        -1.28595e+06         4.14965e+07
   14.43             48456.6             78.7147        -1.28164e+06         4.13552e+07
   14.45             48322.1             78.6261        -1.27737e+06         4.12152e+07
   14.47             48189.6             78.5397        -1.27316e+06         4.10768e+07
   14.49             48058.9             78.4552        -1.26899e+06         4.09397e+07
   14.51             47930.2             78.3728        -1.26487e+06         4.08041e+07
   14.53             47803.3             78.2924         -1.2608e+06         4.06699e+07
   14.55             47678.3             78.2139        -1.25677e+06         4.05371e+07
   14.57             47555.2             78.1374        -1.25279e+06         4.04057e+07
   14.59             47433.9             78.0628        -1.24886e+06         4.02757e+07
   14.61             47314.4               77.99        -1.24498e+06         4.01471e+07
   14.63             47196.7             77.9191        -1.24114e+06         4.00198e+07
   14.65             47080.8               77.85        -1.23734e+06         3.98938e+07
   14.67             46966.6             77.7828        -1.23359e+06         3.97693e+07
   14.69             46854.2             77.7172        -1.22989e+06          3.9646e+07
   14.71             46743.5             77.6535        -1.22623e+06         3.95241e+07
   14.73             46634.5             77.5914        -1.22261e+06         3.94034e+07
   14.75             46527.2              77.531        -1.21904e+06         3.92841e+07
   14.77             46421.6             77.4723        -1.21551e+06          3.9166e+07
   14.79             46317.6             77.4152        -1.21202e+06         3.90493e+07
   14.81             46215.3             77.3598        -1.20857e+06         3.89338e+07
   14.83             46114.5             77.3059        -1.20517e+06         3.88195e+07
   14.85             46015.4             77.2535         -1.2018e+06         3.87065e+07
   14.87             45917.9             77.2027        -1.19848e+06         3.85947e+07
   14.89             45821.9             77.1534         -1.1952e+06         3.84842e+07
   14.91             45727.4             77.1056        -1.19196e+06         3.83748e+07
   14.93             45634.5             77.0593        -1.18876e+06         3.82667e+07
   14.95             45543.1             77.0143         -1.1856e+06         3.81598e+07
   14.97             45453.2             76.9708        -1.18248e+06          3.8054e+07
   14.99             45364.8             76.9287        -1.17939e+06         3.79494e+07
   15.01             45277.8             76.8879        -1.17635e+06         3.78459e+07
   15.03             45192.3             76.8484        -1.17334e+06         3.77437e+07
   15.05             45108.2             76.8103        -1.17037e+06         3.76425e+07
   15.07             45025.5             76.7734        -1.16743e+06         3.75425e+07
   15.09             44944.2             76.7378        -1.16454e+06         3.74436e+07
   15.11             44864.3             76.7034        -1.16168e+06         3.73458e+07
   15.13             44785.7             76.6702        -1.15885e+06         3.72491e+07
   15.15             44708.5             76.6383        -1.15606e+06         3.71534e+07
   15.17             44632.6             76.6074        -1.15331e+06         3.70589e+07
   15.19               44558             76.5778        -1.15059e+06         3.69654e+07
   15.21             44484.7             76.5492        -1.14791e+06          3.6873e+07
   15.23             44412.7             76.5217        -1.14526e+06         3.67816e+07
   15.25             44341.9             76.4953        -1.14264e+06         3.66912e+07
   15.27             44272.4               76.47        -1.14006e+06         3.66019e+07
   15.29             44204.1             76.4457        -1.13751e+06         3.65136e+07
   15.31               44137             76.4224        -1.13499e+06         3.64263e+07
   15.33               44071                76.4        -1.13251e+06         3.63399e+07
   15.35             44006.3             76.3787        -1.13005e+06         3.62546e+07
   15.37             43942.8             76.3582        -1.12763e+06         3.61702e+07
   15.39             43880.3             76.3387        -1.12524e+06         3.60868e+07
   15.41               43819             76.3201        -1.12288e+06         3.60043e+07
   15.43             43758.9             76.3023        -1.12055e+06         3.59228e+07
   15.45             43699.8             76.2854        -1.11825e+06         3.58422e+07
   15.47             43641.8             76.2694        -1.11598e+06         3.57626e+07
   15.49             43584.8             76.2541        -1.11374e+06         3.56838e+07
   15.51             43528.9             76.2397        -1.11153e+06          3.5606e+07
   15.53             43474.1              76.226        -1.10935e+06          3.5529e+07
   15.55             43420.3              76.213         -1.1072e+06         3.54529e+07
   15.57             43367.4             76.2008        -1.10507e+06         3.53777e+07
   15.59             43315.6             76.1893        -1.10297e+06         3.53034e+07
   15.61             43264.7             76.1785         -1.1009e+06         3.52299e+07
   15.63             43214.8             76.1684        -1.09886e+06         3.51572e+07
   15.65             43165.9             76.1589        -1.09684e+06         3.50854e+07
   15.67             43117.8               76.15        -1.09485e+06         3.50144e+07
   15.69             43070.7             76.1418        -1.09289e+06         3.49442e+07
   15.71             43024.5             76.1341        -1.09095e+06         3.48748e+07
   15.73             42979.2              76.127        -1.08903e+06         3.48062e+07
   15.75             42934.7             76.1205        -1.08714e+06         3.47384e+07
   15.77             42891.1             76.1145        -1.08528e+06         3.46714e+07
   15.79             42848.4              76.109        -1.08344e+06         3.46052e+07
   15.81             42806.4             76.1041        -1.08162e+06         3.45397e+07
   15.83             42765.3             76.0996        -1.07983e+06         3.44749e+07
   15.85               42725             76.0956        -1.07806e+06         3.44109e+07
   15.87             42685.5              76.092        -1.07631e+06         3.43476e+07
   15.89             42646.7             76.0888        -1.07459e+06          3.4285e+07
   15.91             42608.7             76.0861        -1.07289e+06         3.42232e+07
   15.93             42571.5             76.0837        -1.07121e+06          3.4162e+07
   15.95               42535             76.0818        -1.06955e+06         3.41016e+07
   15.97             42499.2             76.0802        -1.06792e+06         3.40418e+07
   15.99             42464.1             76.0789         -1.0663e+06         3.39827e+07
   16.01             42429.7              76.078        -1.06471e+06         3.39243e+07
   16.03               42396             76.0773        -1.06314e+06         3.38665e+07
   16.05             42362.9              76.077        -1.06158e+06         3.38094e+07
   16.07             42330.5             76.0769        -1.06005e+06         3.37529e+07
   16.09             42298.8             76.0771        -1.05854e+06         3.36971e+07
   16.11             42267.6             76.0775        -1.05704e+06         3.36419e+07
   16.13             42237.1             76.0782        -1.05557e+06         3.35872e+07
   16.15             42207.2             76.0791        -1.05411e+06         3.35332e+07
   16.17             42177.9             76.0802        -1.05267e+06         3.34798e+07
   16.19             42149.1             76.0814        -1.05125e+06          3.3427e+07
   16.21             42120.9             76.0828        -1.04985e+06         3.33748e+07
   16.23             42093.3             76.0844        -1.04847e+06         3.33232e+07
   16.25             42066.2             76.0861         -1.0471e+06         3.32721e+07
   16.27             42039.7             76.0879        -1.04575e+06         3.32216e+07
   16.29             42013.6             76.0899        -1.04442e+06         3.31716e+07
   16.31             41988.1             76.0919        -1.04311e+06         3.31221e+07
   16.33               41963              76.094        -1.04181e+06         3.30732e+07
   16.35             41938.5             76.0961        -1.04052e+06         3.30249e+07
   16.37             41914.4             76.0983        -1.03926e+06          3.2977e+07
   16.39             41890.8             76.1006          -1.038e+06         3.29297e+07
   16.41             41867.6             76.1028        -1.03677e+06         3.28828e+07
   16.43             41844.9             76.1051        -1.03554e+06         3.28365e+07
   16.45             41822.5             76.1073        -1.03434e+06         3.27907e+07
   16.47             41800.6             76.1095        -1.03315e+06         3.27453e+07
   16.49             41779.2             76.1117        -1.03197e+06         3.27004e+07
   16.51             41758.1             76.1139         -1.0308e+06          3.2656e+07
   16.53             41737.3             76.1159        -1.02965e+06          3.2612e+07
   16.55               41717             76.1179        -1.02852e+06         3.25685e+07
   16.57               41697             76.1199        -1.02739e+06         3.25254e+07
   16.59             41677.4             76.1217        -1.02628e+06         3.24828e+07
   16.61             41658.1             76.1234        -1.02518e+06         3.24406e+07
   16.63             41639.1             76.1249         -1.0241e+06         3.23988e+07
   16.65             41620.5             76.1263        -1.02303e+06         3.23574e+07
   16.67             41602.2             76.1276        -1.02196e+06         3.23165e+07
   16.69             41584.2             76.1287        -1.02092e+06         3.22759e+07
   16.71             41566.5             76.1296        -1.01988e+06         3.22358e+07
   16.73               41549             76.1304        -1.01885e+06          3.2196e+07
   16.75             41531.9             76.1309        -1.01784e+06         3.21567e+07
   16.77               41515             76.1313        -1.01683e+06         3.21177e+07
   16.79             41498.3             76.1314        -1.01584e+06          3.2079e+07
   16.81             41481.9             76.1312        -1.01486e+06         3.20408e+07
   16.83             41465.7             76.1308        -1.01389e+06         3.20029e+07
   16.85             41449.8             76.1302        -1.01293e+06         3.19653e+07
   16.87             41434.1             76.1293        -1.01198e+06         3.19281e+07
   16.89             41418.6             76.1281        -1.01103e+06         3.18913e+07
   16.91             41403.3             76.1266         -1.0101e+06         3.18548e+07
   16.93             41388.2             76.1248        -1.00918e+06         3.18186e+07
   16.95             41373.2             76.1227        -1.00827e+06         3.17827e+07
   16.97             41358.5             76.1203        -1.00736e+06         3.17471e+07
   16.99             41343.9             76.1176        -1.00646e+06         3.17119e+07
   17.01             41329.5             76.1145        -1.00558e+06          3.1677e+07
   17.03             41315.2              76.111         -1.0047e+06         3.16423e+07
   17.05             41301.1             76.1072        -1.00383e+06          3.1608e+07
   17.07             41287.1              76.103        -1.00297e+06         3.15739e+07
   17.09             41273.2             76.0984        -1.00211e+06         3.15402e+07
   17.11             41259.5             76.0934        -1.00126e+06         3.15067e+07
   17.13             41245.9             76.0881        -1.00042e+06         3.14734e+07
   17.15             41232.3             76.0823             -999592         3.14405e+07
   17.17             41218.9             76.0761             -998767         3.14078e+07
   17.19             41205.6             76.0694             -997949         3.13754e+07
   17.21             41192.3             76.0623             -997138         3.13432e+07
   17.23             41179.2             76.0548             -996334         3.13112e+07
   17.25             41166.1             76.0468             -995536         3.12796e+07
   17.27               41153             76.0383             -994744         3.12481e+07
   17.29             41140.1             76.0294             -993959         3.12169e+07
   17.31             41127.1               76.02             -993180         3.11859e+07
   17.33             41114.3             76.0101             -992407         3.11551e+07
   17.35             41101.4             75.9997             -991639         3.11246e+07
   17.37             41088.6             75.9888             -990877         3.10942e+07
   17.39             41075.8             75.9773             -990120         3.10641e+07
   17.41               41063             75.9654             -989369         3.10342e+07
   17.43             41050.3             75.9529             -988623         3.10045e+07
   17.45             41037.5             75.9398             -987882         3.09749e+07
   17.47             41024.7             75.9263             -987146         3.09456e+07
   17.49               41012             75.9121             -986415         3.09165e+07
   17.51             40999.2             75.8974             -985688         3.08875e+07
   17.53             40986.4             75.8822             -984966         3.08587e+07
   17.55             40973.6             75.8663             -984248         3.08301e+07
   17.57             40960.8             75.8499             -983534         3.08017e+07
   17.59             40947.9             75.8329             -982824         3.07734e+07
   17.61               40935             75.8153             -982119         3.07453e+07
   17.63               40922             75.7971             -981417         3.07174e+07
   17.65               40909             75.7783             -980719         3.06896e+07
   17.67               40896             75.7589             -980025          3.0662e+07
   17.69             40882.8             75.7388             -979334         3.06345e+07
   17.71             40869.7             75.7182             -978646         3.06072e+07
   17.73             40856.4             75.6968             -977962           3.058e+07
   17.75             40843.1             75.6749             -977281         3.05529e+07
   17.77             40829.7             75.6523             -976603          3.0526e+07
   17.79             40816.2             75.6291             -975928         3.04993e+07
   17.81             40802.7             75.6052             -975256         3.04726e+07
   17.83               40789             75.5806             -974587         3.04461e+07
   17.85             40775.3             75.5554             -973920         3.04197e+07
   17.87             40761.4             75.5295             -973256         3.03934e+07
   17.89             40747.5              75.503             -972594         3.03673e+07
   17.91             40733.4             75.4757             -971935         3.03412e+07
   17.93             40719.3             75.4478             -971278         3.03153e+07
   17.95               40705             75.4192             -970623         3.02895e+07
   17.97             40690.6             75.3899             -969970         3.02637e+07
   17.99             40676.1             75.3599             -969319         3.02381e+07
   18.01             40661.4             75.3292             -968671         3.02126e+07
   18.03             40646.7             75.2978             -968024         3.01872e+07
   18.05             40631.8             75.2657             -967378         3.01619e+07
   18.07             40616.7             75.2329             -966735         3.01366e+07
   18.09             40601.5             75.1993             -966093         3.01115e+07
   18.11             40586.2             75.1651             -965452         3.00865e+07
   18.13             40570.8             75.1301             -964813         3.00615e+07
   18.15             40555.2             75.0944             -964176         3.00366e+07
   18.17             40539.4              75.058             -963539         3.00118e+07
   18.19             40523.5             75.0208             -962904         2.99871e+07
   18.21             40507.4             74.9829             -962270         2.99624e+07
   18.23             40491.2             74.9442             -961638         2.99379e+07
   18.25             40474.8             74.9049             -961006         2.99134e+07
   18.27             40458.2             74.8647             -960375          2.9889e+07
   18.29             40441.5             74.8239             -959745         2.98646e+07
   18.31             40424.6             74.7823             -959116         2.98403e+07
   18.33             40407.6             74.7399             -958487         2.98161e+07
   18.35             40390.4             74.6968             -957860         2.97919e+07
   18.37             40372.9             74.6529             -957233         2.97678e+07
   18.39             40355.4             74.6083             -956606         2.97438e+07
   18.41             40337.6             74.5629             -955981         2.97198e+07
   18.43             40319.7             74.5168             -955355         2.96959e+07
   18.45             40301.5             74.4699             -954730          2.9672e+07
   18.47             40283.2             74.4222             -954106         2.96482e+07
   18.49             40264.7             74.3738             -953482         2.96244e+07
   18.51               40246             74.3246             -952858         2.96007e+07
   18.53             40227.1             74.2747             -952234          2.9577e+07
   18.55             40208.1             74.2239             -951611         2.95534e+07
   18.57             40188.8             74.1725             -950988         2.95298e+07
   18.59             40169.3             74.1202             -950365         2.95062e+07
   18.61             40149.7             74.0672             -949742         2.94827e+07
   18.63             40129.8             74.0134             -949119         2.94593e+07
   18.65             40109.8             73.9589             -948496         2.94359e+07
   18.67             40089.5             73.9036             -947873         2.94125e+07
   18.69               40069             73.8475             -947250         2.93892e+07
   18.71             40048.4             73.7906             -946627         2.93659e+07
   18.73             40027.5              73.733             -946003         2.93426e+07
   18.75             40006.4             73.6746             -945380         2.93194e+07
   18.77             39985.1             73.6155             -944756         2.92962e+07
   18.79             39963.7             73.5556             -944132          2.9273e+07
   18.81               39942             73.4949             -943508         2.92499e+07
   18.83             39920.1             73.4334             -942884         2.92268e+07
   18.85             39897.9             73.3712             -942259         2.92037e+07
   18.87             39875.6             73.3082             -941634         2.91807e+07
   18.89             39853.1             73.2445             -941008         2.91577e+07
   18.91             39830.3               73.18             -940382         2.91347e+07
   18.93             39807.4             73.1147             -939756         2.91117e+07
   18.95             39784.2             73.0487             -939129         2.90888e+07
   18.97             39760.8             72.9819             -938502         2.90659e+07
   18.99             39737.2             72.9144             -937874          2.9043e+07
   19.01             39713.4             72.8461             -937246         2.90201e+07
   19.03             39689.4             72.7771             -936617         2.89973e+07
   19.05             39665.1             72.7073             -935988         2.89745e+07
   19.07             39640.7             72.6368             -935358         2.89517e+07
   19.09               39616             72.5655             -934728          2.8929e+07
   19.11             39591.1             72.4935             -934097         2.89062e+07
   19.13               39566             72.4207             -933465         2.88835e+07
   19.15             39540.7             72.3472             -932833         2.88608e+07
   19.17             39515.1              72.273             -932200         2.88381e+07
   19.19             39489.4              72.198             -931567         2.88155e+07
   19.21             39463.4             72.1223             -930933         2.87928e+07
   19.23             39437.2             72.0458             -930298         2.87702e+07
   19.25             39410.8             71.9687             -929663         2.87476e+07
   19.27             39384.2             71.8908             -929026          2.8725e+07
   19.29             39357.4             71.8122             -928389         2.87024e+07
   19.31             39330.3             71.7328             -927752         2.86799e+07
   19.33             39303.1             71.6528             -927114         2.86574e+07
   19.35             39275.6              71.572             -926475         2.86349e+07
   19.37             39247.9             71.4906             -925835         2.86124e+07
   19.39               39220             71.4084             -925194         2.85899e+07
   19.41             39191.9             71.3255             -924553         2.85674e+07
   19.43             39163.6              71.242             -923911          2.8545e+07
   19.45               39135             71.1577             -923269         2.85226e+07
   19.47             39106.3             71.0728             -922625         2.85002e+07
   19.49             39077.3             70.9871             -921981         2.84778e+07
   19.51             39048.1             70.9008             -921336         2.84554e+07
   19.53             39018.8             70.8138             -920690         2.84331e+07
   19.55             38989.2             70.7262             -920044         2.84107e+07
   19.57             38959.4             70.6378             -919397         2.83884e+07
   19.59             38929.3             70.5488             -918749         2.83661e+07
   19.61             38899.1             70.4591             -918100         2.83438e+07
   19.63             38868.7             70.3688             -917450         2.83216e+07
   19.65             38838.1             70.2778             -916800         2.82993e+07
   19.67             38807.2             70.1862             -916149         2.82771e+07
   19.69             38776.2             70.0939             -915497         2.82549e+07
   19.71             38744.9              70.001             -914845         2.82327e+07
   19.73             38713.5             69.9075             -914191         2.82105e+07
   19.75             38681.8             69.8133             -913537         2.81883e+07
   19.77             38649.9             69.7185             -912882         2.81662e+07
   19.79             38617.9             69.6231             -912227         2.81441e+07
   19.81             38585.6              69.527             -911571          2.8122e+07
   19.83             38553.2             69.4304             -910913         2.80999e+07
   19.85             38520.5             69.3331             -910256         2.80778e+07
   19.87             38487.6             69.2352             -909597         2.80558e+07
   19.89             38454.6             69.1368             -908938         2.80337e+07
   19.91             38421.3             69.0377             -908278         2.80117e+07
   19.93             38387.9             68.9381             -907617         2.79897e+07
   19.95             38354.3             68.8379             -906955         2.79678e+07
   19.97             38320.4             68.7371             -906293         2.79458e+07
   19.99             38286.4             68.6358             -905630         2.79239e+07
