## w(eV)         sigma(Sm^-1)     kappa(W(mK)^-1)        L12/e(Am^-1)      L22/e^2(Wm^-1)
    0.01              200568             202.742        -4.09124e+06          1.0266e+08
    0.03              200567             202.741        -4.09122e+06          1.0266e+08
    0.05              200565             202.738        -4.09117e+06         1.02658e+08
    0.07              200562             202.734         -4.0911e+06         1.02657e+08
    0.09              200557             202.729          -4.091e+06         1.02654e+08
    0.11              200551             202.723        -4.09088e+06         1.02651e+08
    0.13              200544             202.715        -4.09074e+06         1.02647e+08
    0.15              200536             202.706        -4.09057e+06         1.02643e+08
    0.17              200527             202.696        -4.09038e+06         1.02638e+08
    0.19              200516             202.685        -4.09016e+06         1.02632e+08
    0.21              200505             202.672        -4.08992e+06         1.02626e+08
    0.23              200492             202.658        -4.08966e+06          1.0262e+08
    0.25              200478             202.643        -4.08937e+06         1.02612e+08
    0.27              200463             202.626        -4.08906e+06         1.02604e+08
    0.29              200447             202.609        -4.08872e+06         1.02595e+08
    0.31              200430              202.59        -4.08836e+06         1.02586e+08
    0.33              200411             202.569        -4.08798e+06         1.02576e+08
    0.35              200392             202.548        -4.08757e+06         1.02566e+08
    0.37              200371             202.525        -4.08714e+06         1.02555e+08
    0.39              200349             202.501        -4.08669e+06         1.02543e+08
    0.41              200326             202.475        -4.08621e+06         1.02531e+08
    0.43              200301             202.449        -4.08571e+06         1.02518e+08
    0.45              200276             202.421        -4.08518e+06         1.02504e+08
    0.47              200249             202.392        -4.08463e+06          1.0249e+08
    0.49              200222             202.361        -4.08405e+06         1.02475e+08
    0.51              200193             202.329        -4.08346e+06          1.0246e+08
    0.53              200163             202.296        -4.08283e+06         1.02444e+08
    0.55              200132             202.262        -4.08219e+06         1.02427e+08
    0.57              200099             202.227        -4.08152e+06          1.0241e+08
    0.59              200066              202.19        -4.08083e+06         1.02392e+08
    0.61              200031             202.152        -4.08011e+06         1.02374e+08
    0.63              199996             202.113        -4.07937e+06         1.02355e+08
    0.65              199959             202.072         -4.0786e+06         1.02335e+08
    0.67              199921              202.03        -4.07782e+06         1.02315e+08
    0.69              199882             201.987          -4.077e+06         1.02294e+08
    0.71              199841             201.943        -4.07617e+06         1.02272e+08
    0.73              199800             201.898        -4.07531e+06          1.0225e+08
    0.75              199757             201.851        -4.07443e+06         1.02227e+08
    0.77              199713             201.803        -4.07352e+06         1.02204e+08
    0.79              199668             201.753        -4.07259e+06          1.0218e+08
    0.81              199622             201.703        -4.07164e+06         1.02156e+08
    0.83              199575             201.651        -4.07066e+06         1.02131e+08
    0.85              199527             201.598        -4.06966e+06         1.02105e+08
    0.87              199478             201.544        -4.06863e+06         1.02078e+08
    0.89              199427             201.488        -4.06759e+06         1.02051e+08
    0.91              199375             201.431        -4.06651e+06         1.02024e+08
    0.93              199322             201.373        -4.06542e+06         1.01996e+08
    0.95              199269             201.314         -4.0643e+06         1.01967e+08
    0.97              199213             201.254        -4.06316e+06         1.01938e+08
    0.99              199157             201.192        -4.06199e+06         1.01908e+08
    1.01              199100             201.129        -4.06081e+06         1.01877e+08
    1.03              199041             201.065        -4.05959e+06         1.01846e+08
    1.05              198982             200.999        -4.05836e+06         1.01814e+08
    1.07              198921             200.933         -4.0571e+06         1.01782e+08
    1.09              198859             200.865        -4.05582e+06         1.01749e+08
    1.11              198796             200.796        -4.05452e+06         1.01715e+08
    1.13              198732             200.725        -4.05319e+06         1.01681e+08
    1.15              198667             200.654        -4.05184e+06         1.01646e+08
    1.17              198601             200.581        -4.05046e+06         1.01611e+08
    1.19              198533             200.507        -4.04907e+06         1.01575e+08
    1.21              198465             200.431        -4.04764e+06         1.01538e+08
    1.23              198395             200.355         -4.0462e+06         1.01501e+08
    1.25              198324             200.277        -4.04474e+06         1.01463e+08
    1.27              198252             200.198        -4.04325e+06         1.01425e+08
    1.29              198179             200.118        -4.04173e+06         1.01386e+08
    1.31              198105             200.037         -4.0402e+06         1.01347e+08
    1.33              198030             199.954        -4.03864e+06         1.01307e+08
    1.35              197954              199.87        -4.03706e+06         1.01266e+08
    1.37              197876             199.785        -4.03545e+06         1.01225e+08
    1.39              197798             199.699        -4.03383e+06         1.01183e+08
    1.41              197718             199.612        -4.03218e+06          1.0114e+08
    1.43              197637             199.523        -4.03051e+06         1.01097e+08
    1.45              197556             199.433        -4.02881e+06         1.01054e+08
    1.47              197473             199.342        -4.02709e+06         1.01009e+08
    1.49              197389              199.25        -4.02535e+06         1.00965e+08
    1.51              197304             199.157        -4.02359e+06         1.00919e+08
    1.53              197217             199.062        -4.02181e+06         1.00873e+08
    1.55              197130             198.967           -4.02e+06         1.00827e+08
    1.57              197042              198.87        -4.01817e+06          1.0078e+08
    1.59              196952             198.771        -4.01631e+06         1.00732e+08
    1.61              196862             198.672        -4.01444e+06         1.00684e+08
    1.63              196770             198.572        -4.01254e+06         1.00635e+08
    1.65              196678              198.47        -4.01062e+06         1.00586e+08
    1.67              196584             198.367        -4.00868e+06         1.00536e+08
    1.69              196489             198.263        -4.00672e+06         1.00485e+08
    1.71              196393             198.158        -4.00473e+06         1.00434e+08
    1.73              196296             198.051        -4.00272e+06         1.00382e+08
    1.75              196198             197.944        -4.00069e+06          1.0033e+08
    1.77              196099             197.835        -3.99864e+06         1.00277e+08
    1.79              195999             197.725        -3.99656e+06         1.00224e+08
    1.81              195898             197.614        -3.99447e+06          1.0017e+08
    1.83              195795             197.502        -3.99235e+06         1.00115e+08
    1.85              195692             197.388        -3.99021e+06          1.0006e+08
    1.87              195587             197.274        -3.98804e+06         1.00005e+08
    1.89              195482             197.158        -3.98586e+06         9.99486e+07
    1.91              195376             197.041        -3.98365e+06         9.98918e+07
    1.93              195268             196.923        -3.98143e+06         9.98345e+07
    1.95              195159             196.804        -3.97918e+06         9.97767e+07
    1.97              195050             196.684        -3.97691e+06         9.97183e+07
    1.99              194939             196.562        -3.97461e+06         9.96593e+07
    2.01              194827              196.44         -3.9723e+06         9.95998e+07
    2.03              194714             196.316        -3.96996e+06         9.95397e+07
    2.05              194601             196.191        -3.96761e+06         9.94791e+07
    2.07              194486             196.065        -3.96523e+06         9.94179e+07
    2.09              194370             195.938        -3.96283e+06         9.93562e+07
    2.11              194253              195.81        -3.96041e+06         9.92939e+07
    2.13              194135             195.681        -3.95797e+06         9.92311e+07
    2.15              194016              195.55         -3.9555e+06         9.91677e+07
    2.17              193896             195.419        -3.95302e+06         9.91038e+07
    2.19              193775             195.286        -3.95051e+06         9.90394e+07
    2.21              193653             195.152        -3.94799e+06         9.89744e+07
    2.23              193530             195.017        -3.94544e+06         9.89089e+07
    2.25              193406             194.881        -3.94287e+06         9.88428e+07
    2.27              193281             194.744        -3.94028e+06         9.87763e+07
    2.29              193155             194.606        -3.93767e+06         9.87091e+07
    2.31              193028             194.467        -3.93504e+06         9.86415e+07
    2.33              192900             194.326        -3.93239e+06         9.85733e+07
    2.35              192771             194.185        -3.92971e+06         9.85046e+07
    2.37              192641             194.042        -3.92702e+06         9.84353e+07
    2.39              192510             193.899        -3.92431e+06         9.83656e+07
    2.41              192378             193.754        -3.92157e+06         9.82953e+07
    2.43              192244             193.608        -3.91882e+06         9.82245e+07
    2.45              192110             193.461        -3.91605e+06         9.81531e+07
    2.47              191975             193.313        -3.91325e+06         9.80813e+07
    2.49              191839             193.164        -3.91044e+06         9.80089e+07
    2.51              191702             193.014         -3.9076e+06          9.7936e+07
    2.53              191565             192.863        -3.90474e+06         9.78626e+07
    2.55              191426             192.711        -3.90187e+06         9.77886e+07
    2.57              191286             192.558        -3.89897e+06         9.77142e+07
    2.59              191145             192.403        -3.89606e+06         9.76392e+07
    2.61              191003             192.248        -3.89312e+06         9.75638e+07
    2.63              190860             192.092        -3.89017e+06         9.74878e+07
    2.65              190717             191.934        -3.88719e+06         9.74113e+07
    2.67              190572             191.776         -3.8842e+06         9.73343e+07
    2.69              190426             191.616        -3.88118e+06         9.72568e+07
    2.71              190280             191.455        -3.87815e+06         9.71788e+07
    2.73              190132             191.294         -3.8751e+06         9.71003e+07
    2.75              189984             191.131        -3.87202e+06         9.70214e+07
    2.77              189834             190.968        -3.86893e+06         9.69419e+07
    2.79              189684             190.803        -3.86582e+06         9.68619e+07
    2.81              189533             190.637        -3.86269e+06         9.67814e+07
    2.83              189380             190.471        -3.85954e+06         9.67004e+07
    2.85              189227             190.303        -3.85637e+06          9.6619e+07
    2.87              189073             190.134        -3.85318e+06          9.6537e+07
    2.89              188918             189.964        -3.84997e+06         9.64546e+07
    2.91              188762             189.794        -3.84675e+06         9.63717e+07
    2.93              188605             189.622         -3.8435e+06         9.62883e+07
    2.95              188448             189.449        -3.84024e+06         9.62044e+07
    2.97              188289             189.276        -3.83695e+06           9.612e+07
    2.99              188129             189.101        -3.83365e+06         9.60352e+07
    3.01              187969             188.925        -3.83033e+06         9.59499e+07
    3.03              187808             188.749        -3.82699e+06         9.58641e+07
    3.05              187645             188.571        -3.82364e+06         9.57778e+07
    3.07              187482             188.393        -3.82026e+06         9.56911e+07
    3.09              187318             188.213        -3.81687e+06         9.56039e+07
    3.11              187153             188.033        -3.81345e+06         9.55162e+07
    3.13              186987             187.851        -3.81002e+06          9.5428e+07
    3.15              186821             187.669        -3.80657e+06         9.53394e+07
    3.17              186653             187.485        -3.80311e+06         9.52504e+07
    3.19              186485             187.301        -3.79962e+06         9.51608e+07
    3.21              186315             187.116        -3.79612e+06         9.50709e+07
    3.23              186145              186.93         -3.7926e+06         9.49804e+07
    3.25              185974             186.743        -3.78906e+06         9.48895e+07
    3.27              185802             186.555        -3.78551e+06         9.47982e+07
    3.29              185629             186.366        -3.78193e+06         9.47064e+07
    3.31              185456             186.176        -3.77834e+06         9.46141e+07
    3.33              185281             185.985        -3.77473e+06         9.45214e+07
    3.35              185106             185.793        -3.77111e+06         9.44283e+07
    3.37              184930               185.6        -3.76746e+06         9.43347e+07
    3.39              184753             185.407         -3.7638e+06         9.42407e+07
    3.41              184575             185.212        -3.76012e+06         9.41462e+07
    3.43              184396             185.017        -3.75643e+06         9.40513e+07
    3.45              184217             184.821        -3.75272e+06         9.39559e+07
    3.47              184036             184.624        -3.74899e+06         9.38602e+07
    3.49              183855             184.426        -3.74524e+06          9.3764e+07
    3.51              183673             184.227        -3.74148e+06         9.36673e+07
    3.53              183490             184.027         -3.7377e+06         9.35703e+07
    3.55              183307             183.826         -3.7339e+06         9.34728e+07
    3.57              183122             183.625        -3.73009e+06         9.33748e+07
    3.59              182937             183.422        -3.72626e+06         9.32765e+07
    3.61              182751             183.219        -3.72241e+06         9.31778e+07
    3.63              182564             183.015        -3.71855e+06         9.30786e+07
    3.65              182377              182.81        -3.71467e+06          9.2979e+07
    3.67              182188             182.604        -3.71078e+06          9.2879e+07
    3.69              181999             182.397        -3.70687e+06         9.27786e+07
    3.71              181809              182.19        -3.70294e+06         9.26777e+07
    3.73              181618             181.981          -3.699e+06         9.25765e+07
    3.75              181427             181.772        -3.69504e+06         9.24749e+07
    3.77              181234             181.562        -3.69106e+06         9.23728e+07
    3.79              181041             181.351        -3.68707e+06         9.22704e+07
    3.81              180848              181.14        -3.68306e+06         9.21675e+07
    3.83              180653             180.927        -3.67904e+06         9.20643e+07
    3.85              180458             180.714          -3.675e+06         9.19606e+07
    3.87              180262               180.5        -3.67095e+06         9.18566e+07
    3.89              180065             180.285        -3.66688e+06         9.17522e+07
    3.91              179867             180.069         -3.6628e+06         9.16474e+07
    3.93              179669             179.852         -3.6587e+06         9.15422e+07
    3.95              179470             179.635        -3.65459e+06         9.14366e+07
    3.97              179270             179.417        -3.65046e+06         9.13306e+07
    3.99              179069             179.198        -3.64631e+06         9.12243e+07
    4.01              178868             178.978        -3.64215e+06         9.11176e+07
    4.03              178666             178.758        -3.63798e+06         9.10104e+07
    4.05              178463             178.537        -3.63379e+06          9.0903e+07
    4.07              178260             178.315        -3.62959e+06         9.07951e+07
    4.09              178056             178.092        -3.62537e+06         9.06869e+07
    4.11              177851             177.869        -3.62114e+06         9.05783e+07
    4.13              177645             177.644        -3.61689e+06         9.04694e+07
    4.15              177439             177.419        -3.61263e+06           9.036e+07
    4.17              177232             177.194        -3.60836e+06         9.02504e+07
    4.19              177024             176.967        -3.60407e+06         9.01403e+07
    4.21              176816              176.74        -3.59976e+06         9.00299e+07
    4.23              176607             176.512        -3.59545e+06         8.99192e+07
    4.25              176397             176.283        -3.59112e+06         8.98081e+07
    4.27              176187             176.054        -3.58677e+06         8.96966e+07
    4.29              175976             175.824        -3.58241e+06         8.95848e+07
    4.31              175764             175.593        -3.57804e+06         8.94726e+07
    4.33              175552             175.361        -3.57365e+06         8.93602e+07
    4.35              175339             175.129        -3.56925e+06         8.92473e+07
    4.37              175125             174.896        -3.56484e+06         8.91341e+07
    4.39              174911             174.662        -3.56042e+06         8.90206e+07
    4.41              174696             174.428        -3.55598e+06         8.89068e+07
    4.43              174480             174.193        -3.55152e+06         8.87926e+07
    4.45              174264             173.957        -3.54706e+06         8.86781e+07
    4.47              174047             173.721        -3.54258e+06         8.85632e+07
    4.49              173830             173.484        -3.53809e+06         8.84481e+07
    4.51              173611             173.246        -3.53358e+06         8.83326e+07
    4.53              173393             173.008        -3.52907e+06         8.82168e+07
    4.55              173173             172.769        -3.52454e+06         8.81006e+07
    4.57              172953             172.529           -3.52e+06         8.79842e+07
    4.59              172732             172.289        -3.51544e+06         8.78674e+07
    4.61              172511             172.048        -3.51087e+06         8.77504e+07
    4.63              172289             171.806        -3.50629e+06          8.7633e+07
    4.65              172067             171.564         -3.5017e+06         8.75153e+07
    4.67              171844             171.321         -3.4971e+06         8.73973e+07
    4.69              171620             171.078        -3.49248e+06          8.7279e+07
    4.71              171396             170.834        -3.48786e+06         8.71603e+07
    4.73              171171             170.589        -3.48322e+06         8.70414e+07
    4.75              170946             170.344        -3.47857e+06         8.69222e+07
    4.77              170720             170.098         -3.4739e+06         8.68027e+07
    4.79              170493             169.851        -3.46923e+06         8.66829e+07
    4.81              170266             169.604        -3.46454e+06         8.65629e+07
    4.83              170039             169.356        -3.45985e+06         8.64425e+07
    4.85              169810             169.108        -3.45514e+06         8.63218e+07
    4.87              169582             168.859        -3.45042e+06         8.62009e+07
    4.89              169352              168.61        -3.44569e+06         8.60797e+07
    4.91              169122              168.36        -3.44094e+06         8.59582e+07
    4.93              168892             168.109        -3.43619e+06         8.58364e+07
    4.95              168661             167.858        -3.43143e+06         8.57144e+07
    4.97              168430             167.606        -3.42665e+06         8.55921e+07
    4.99              168198             167.354        -3.42187e+06         8.54695e+07
    5.01              167965             167.101        -3.41707e+06         8.53466e+07
    5.03              167732             166.848        -3.41227e+06         8.52235e+07
    5.05              167498             166.594        -3.40745e+06         8.51001e+07
    5.07              167264             166.339        -3.40262e+06         8.49765e+07
    5.09              167030             166.084        -3.39778e+06         8.48526e+07
    5.11              166795             165.829        -3.39294e+06         8.47284e+07
    5.13              166559             165.573        -3.38808e+06          8.4604e+07
    5.15              166323             165.316        -3.38321e+06         8.44793e+07
    5.17              166086             165.059        -3.37833e+06         8.43544e+07
    5.19              165849             164.801        -3.37344e+06         8.42293e+07
    5.21              165612             164.543        -3.36855e+06         8.41039e+07
    5.23              165374             164.285        -3.36364e+06         8.39782e+07
    5.25              165135             164.026        -3.35872e+06         8.38524e+07
    5.27              164896             163.766         -3.3538e+06         8.37263e+07
    5.29              164657             163.506        -3.34886e+06         8.35999e+07
    5.31              164417             163.245        -3.34392e+06         8.34733e+07
    5.33              164177             162.984        -3.33896e+06         8.33465e+07
    5.35              163936             162.723          -3.334e+06         8.32195e+07
    5.37              163695             162.461        -3.32903e+06         8.30922e+07
    5.39              163453             162.199        -3.32405e+06         8.29647e+07
    5.41              163211             161.936        -3.31906e+06          8.2837e+07
    5.43              162968             161.673        -3.31406e+06         8.27091e+07
    5.45              162725             161.409        -3.30905e+06          8.2581e+07
    5.47              162482             161.145        -3.30404e+06         8.24526e+07
    5.49              162238              160.88        -3.29901e+06          8.2324e+07
    5.51              161994             160.615        -3.29398e+06         8.21953e+07
    5.53              161749              160.35        -3.28894e+06         8.20663e+07
    5.55              161504             160.084        -3.28389e+06         8.19371e+07
    5.57              161258             159.817        -3.27883e+06         8.18077e+07
    5.59              161013             159.551        -3.27377e+06         8.16781e+07
    5.61              160766             159.284         -3.2687e+06         8.15484e+07
    5.63              160520             159.016        -3.26361e+06         8.14184e+07
    5.65              160273             158.748        -3.25853e+06         8.12882e+07
    5.67              160025              158.48        -3.25343e+06         8.11579e+07
    5.69              159777             158.211        -3.24833e+06         8.10273e+07
    5.71              159529             157.942        -3.24321e+06         8.08966e+07
    5.73              159280             157.673         -3.2381e+06         8.07657e+07
    5.75              159032             157.403        -3.23297e+06         8.06346e+07
    5.77              158782             157.133        -3.22784e+06         8.05033e+07
    5.79              158533             156.862         -3.2227e+06         8.03719e+07
    5.81              158283             156.591        -3.21755e+06         8.02403e+07
    5.83              158032              156.32        -3.21239e+06         8.01085e+07
    5.85              157781             156.048        -3.20723e+06         7.99765e+07
    5.87              157530             155.776        -3.20207e+06         7.98444e+07
    5.89              157279             155.504        -3.19689e+06         7.97121e+07
    5.91              157027             155.232        -3.19171e+06         7.95797e+07
    5.93              156775             154.959        -3.18652e+06          7.9447e+07
    5.95              156523             154.685        -3.18133e+06         7.93143e+07
    5.97              156270             154.412        -3.17613e+06         7.91814e+07
    5.99              156017             154.138        -3.17092e+06         7.90483e+07
    6.01              155764             153.864        -3.16571e+06         7.89151e+07
    6.03              155510             153.589        -3.16049e+06         7.87817e+07
    6.05              155256             153.314        -3.15526e+06         7.86482e+07
    6.07              155002             153.039        -3.15003e+06         7.85145e+07
    6.09              154747             152.764         -3.1448e+06         7.83807e+07
    6.11              154493             152.488        -3.13956e+06         7.82468e+07
    6.13              154237             152.212        -3.13431e+06         7.81127e+07
    6.15              153982             151.936        -3.12905e+06         7.79785e+07
    6.17              153726             151.659         -3.1238e+06         7.78442e+07
    6.19              153470             151.382        -3.11853e+06         7.77097e+07
    6.21              153214             151.105        -3.11326e+06         7.75751e+07
    6.23              152958             150.828        -3.10799e+06         7.74404e+07
    6.25              152701              150.55        -3.10271e+06         7.73055e+07
    6.27              152444             150.273        -3.09742e+06         7.71706e+07
    6.29              152187             149.995        -3.09214e+06         7.70355e+07
    6.31              151929             149.716        -3.08684e+06         7.69003e+07
    6.33              151671             149.438        -3.08154e+06          7.6765e+07
    6.35              151413             149.159        -3.07624e+06         7.66296e+07
    6.37              151155              148.88        -3.07093e+06         7.64941e+07
    6.39              150897             148.601        -3.06562e+06         7.63584e+07
    6.41              150638             148.321         -3.0603e+06         7.62227e+07
    6.43              150379             148.042        -3.05498e+06         7.60869e+07
    6.45              150120             147.762        -3.04966e+06         7.59509e+07
    6.47              149861             147.482        -3.04433e+06         7.58149e+07
    6.49              149601             147.202        -3.03899e+06         7.56788e+07
    6.51              149342             146.921        -3.03366e+06         7.55426e+07
    6.53              149082             146.641        -3.02832e+06         7.54063e+07
    6.55              148821              146.36        -3.02297e+06         7.52699e+07
    6.57              148561             146.079        -3.01762e+06         7.51334e+07
    6.59              148301             145.798        -3.01227e+06         7.49968e+07
    6.61              148040             145.516        -3.00692e+06         7.48602e+07
    6.63              147779             145.235        -3.00156e+06         7.47235e+07
    6.65              147518             144.953        -2.99619e+06         7.45867e+07
    6.67              147257             144.671        -2.99083e+06         7.44498e+07
    6.69              146995             144.389        -2.98546e+06         7.43128e+07
    6.71              146734             144.107        -2.98009e+06         7.41758e+07
    6.73              146472             143.825        -2.97472e+06         7.40388e+07
    6.75              146210             143.543        -2.96934e+06         7.39016e+07
    6.77              145948              143.26        -2.96396e+06         7.37644e+07
    6.79              145686             142.978        -2.95858e+06         7.36271e+07
    6.81              145423             142.695        -2.95319e+06         7.34898e+07
    6.83              145161             142.412         -2.9478e+06         7.33524e+07
    6.85              144898             142.129        -2.94241e+06          7.3215e+07
    6.87              144636             141.846        -2.93702e+06         7.30775e+07
    6.89              144373             141.563        -2.93162e+06           7.294e+07
    6.91              144110             141.279        -2.92623e+06         7.28024e+07
    6.93              143847             140.996        -2.92083e+06         7.26648e+07
    6.95              143583             140.712        -2.91543e+06         7.25271e+07
    6.97              143320             140.429        -2.91002e+06         7.23894e+07
    6.99              143057             140.145        -2.90462e+06         7.22517e+07
    7.01              142793             139.861        -2.89921e+06         7.21139e+07
    7.03              142529             139.578         -2.8938e+06         7.19761e+07
    7.05              142266             139.294        -2.88839e+06         7.18382e+07
    7.07              142002              139.01        -2.88298e+06         7.17003e+07
    7.09              141738             138.726        -2.87757e+06         7.15624e+07
    7.11              141474             138.442        -2.87215e+06         7.14245e+07
    7.13              141210             138.158        -2.86674e+06         7.12865e+07
    7.15              140946             137.873        -2.86132e+06         7.11486e+07
    7.17              140681             137.589        -2.85591e+06         7.10106e+07
    7.19              140417             137.305        -2.85049e+06         7.08726e+07
    7.21              140153             137.021        -2.84507e+06         7.07345e+07
    7.23              139888             136.736        -2.83965e+06         7.05965e+07
    7.25              139624             136.452        -2.83422e+06         7.04585e+07
    7.27              139359             136.168         -2.8288e+06         7.03204e+07
    7.29              139095             135.883        -2.82338e+06         7.01823e+07
    7.31              138830             135.599        -2.81796e+06         7.00443e+07
    7.33              138565             135.315        -2.81253e+06         6.99062e+07
    7.35              138301              135.03        -2.80711e+06         6.97682e+07
    7.37              138036             134.746        -2.80169e+06         6.96301e+07
    7.39              137771             134.461        -2.79626e+06          6.9492e+07
    7.41              137506             134.177        -2.79084e+06          6.9354e+07
    7.43              137241             133.893        -2.78541e+06          6.9216e+07
    7.45              136977             133.608        -2.77999e+06         6.90779e+07
    7.47              136712             133.324        -2.77456e+06         6.89399e+07
    7.49              136447              133.04        -2.76914e+06         6.88019e+07
    7.51              136182             132.755        -2.76372e+06         6.86639e+07
    7.53              135917             132.471        -2.75829e+06          6.8526e+07
    7.55              135652             132.187        -2.75287e+06          6.8388e+07
    7.57              135387             131.903        -2.74745e+06         6.82501e+07
    7.59              135123             131.619        -2.74203e+06         6.81122e+07
    7.61              134858             131.335        -2.73661e+06         6.79744e+07
    7.63              134593             131.051        -2.73119e+06         6.78365e+07
    7.65              134328             130.767        -2.72577e+06         6.76987e+07
    7.67              134063             130.483        -2.72035e+06         6.75609e+07
    7.69              133799             130.199        -2.71493e+06         6.74232e+07
    7.71              133534             129.915        -2.70951e+06         6.72855e+07
    7.73              133269             129.632         -2.7041e+06         6.71479e+07
    7.75              133005             129.348        -2.69869e+06         6.70102e+07
    7.77              132740             129.064        -2.69327e+06         6.68727e+07
    7.79              132475             128.781        -2.68786e+06         6.67352e+07
    7.81              132211             128.498        -2.68245e+06         6.65977e+07
    7.83              131946             128.214        -2.67704e+06         6.64603e+07
    7.85              131682             127.931        -2.67164e+06         6.63229e+07
    7.87              131418             127.648        -2.66623e+06         6.61856e+07
    7.89              131154             127.365        -2.66083e+06         6.60483e+07
    7.91              130889             127.083        -2.65543e+06         6.59111e+07
    7.93              130625               126.8        -2.65003e+06         6.57739e+07
    7.95              130361             126.517        -2.64463e+06         6.56368e+07
    7.97              130097             126.235        -2.63924e+06         6.54998e+07
    7.99              129833             125.953        -2.63384e+06         6.53629e+07
    8.01              129570              125.67        -2.62845e+06          6.5226e+07
    8.03              129306             125.388        -2.62306e+06         6.50892e+07
    8.05              129042             125.106        -2.61768e+06         6.49524e+07
    8.07              128779             124.825        -2.61229e+06         6.48157e+07
    8.09              128515             124.543        -2.60691e+06         6.46791e+07
    8.11              128252             124.262        -2.60153e+06         6.45426e+07
    8.13              127989              123.98        -2.59616e+06         6.44062e+07
    8.15              127726             123.699        -2.59079e+06         6.42698e+07
    8.17              127463             123.418        -2.58541e+06         6.41335e+07
    8.19              127200             123.137        -2.58005e+06         6.39973e+07
    8.21              126937             122.857        -2.57468e+06         6.38612e+07
    8.23              126674             122.576        -2.56932e+06         6.37252e+07
    8.25              126412             122.296        -2.56396e+06         6.35892e+07
    8.27              126150             122.016        -2.55861e+06         6.34534e+07
    8.29              125887             121.736        -2.55326e+06         6.33176e+07
    8.31              125625             121.456        -2.54791e+06          6.3182e+07
    8.33              125363             121.176        -2.54256e+06         6.30464e+07
    8.35              125101             120.897        -2.53722e+06         6.29109e+07
    8.37              124840             120.618        -2.53188e+06         6.27756e+07
    8.39              124578             120.339        -2.52655e+06         6.26403e+07
    8.41              124317              120.06        -2.52121e+06         6.25052e+07
    8.43              124056             119.781        -2.51589e+06         6.23701e+07
    8.45              123795             119.503        -2.51056e+06         6.22352e+07
    8.47              123534             119.225        -2.50524e+06         6.21004e+07
    8.49              123273             118.947        -2.49993e+06         6.19656e+07
    8.51              123013             118.669        -2.49462e+06          6.1831e+07
    8.53              122752             118.392        -2.48931e+06         6.16965e+07
    8.55              122492             118.115          -2.484e+06         6.15622e+07
    8.57              122232             117.838         -2.4787e+06         6.14279e+07
    8.59              121972             117.561        -2.47341e+06         6.12938e+07
    8.61              121713             117.284        -2.46812e+06         6.11597e+07
    8.63              121453             117.008        -2.46283e+06         6.10259e+07
    8.65              121194             116.732        -2.45755e+06         6.08921e+07
    8.67              120935             116.456        -2.45227e+06         6.07584e+07
    8.69              120676             116.181          -2.447e+06         6.06249e+07
    8.71              120417             115.905        -2.44173e+06         6.04915e+07
    8.73              120159              115.63        -2.43647e+06         6.03583e+07
    8.75              119901             115.356        -2.43121e+06         6.02252e+07
    8.77              119643             115.081        -2.42595e+06         6.00922e+07
    8.79              119385             114.807         -2.4207e+06         5.99593e+07
    8.81              119127             114.533        -2.41546e+06         5.98266e+07
    8.83              118870             114.259        -2.41022e+06          5.9694e+07
    8.85              118613             113.986        -2.40499e+06         5.95616e+07
    8.87              118356             113.713        -2.39976e+06         5.94293e+07
    8.89              118099              113.44        -2.39453e+06         5.92972e+07
    8.91              117842             113.168        -2.38931e+06         5.91652e+07
    8.93              117586             112.895         -2.3841e+06         5.90333e+07
    8.95              117330             112.623        -2.37889e+06         5.89016e+07
    8.97              117074             112.352        -2.37369e+06         5.87701e+07
    8.99              116819              112.08        -2.36849e+06         5.86387e+07
    9.01              116564             111.809         -2.3633e+06         5.85074e+07
    9.03              116309             111.539        -2.35812e+06         5.83763e+07
    9.05              116054             111.268        -2.35294e+06         5.82454e+07
    9.07              115799             110.998        -2.34776e+06         5.81146e+07
    9.09              115545             110.728        -2.34259e+06          5.7984e+07
    9.11              115291             110.459        -2.33743e+06         5.78536e+07
    9.13              115037              110.19        -2.33228e+06         5.77233e+07
    9.15              114784             109.921        -2.32712e+06         5.75931e+07
    9.17              114531             109.653        -2.32198e+06         5.74632e+07
    9.19              114278             109.384        -2.31684e+06         5.73334e+07
    9.21              114025             109.117        -2.31171e+06         5.72038e+07
    9.23              113773             108.849        -2.30658e+06         5.70743e+07
    9.25              113521             108.582        -2.30146e+06          5.6945e+07
    9.27              113269             108.315        -2.29635e+06         5.68159e+07
    9.29              113017             108.049        -2.29124e+06          5.6687e+07
    9.31              112766             107.783        -2.28614e+06         5.65582e+07
    9.33              112515             107.517        -2.28105e+06         5.64296e+07
    9.35              112264             107.252        -2.27596e+06         5.63012e+07
    9.37              112014             106.987        -2.27088e+06          5.6173e+07
    9.39              111764             106.722         -2.2658e+06         5.60449e+07
    9.41              111514             106.458        -2.26073e+06         5.59171e+07
    9.43              111265             106.194        -2.25567e+06         5.57894e+07
    9.45              111015              105.93        -2.25062e+06         5.56619e+07
    9.47              110767             105.667        -2.24557e+06         5.55346e+07
    9.49              110518             105.404        -2.24053e+06         5.54075e+07
    9.51              110270             105.142         -2.2355e+06         5.52805e+07
    9.53              110022             104.879        -2.23047e+06         5.51538e+07
    9.55              109774             104.618        -2.22545e+06         5.50272e+07
    9.57              109527             104.356        -2.22044e+06         5.49009e+07
    9.59              109280             104.096        -2.21543e+06         5.47747e+07
    9.61              109033             103.835        -2.21044e+06         5.46488e+07
    9.63              108787             103.575        -2.20544e+06          5.4523e+07
    9.65              108541             103.315        -2.20046e+06         5.43974e+07
    9.67              108295             103.056        -2.19548e+06          5.4272e+07
    9.69              108050             102.797        -2.19052e+06         5.41469e+07
    9.71              107805             102.538        -2.18555e+06         5.40219e+07
    9.73              107560              102.28         -2.1806e+06         5.38971e+07
    9.75              107316             102.022        -2.17565e+06         5.37726e+07
    9.77              107072             101.765        -2.17071e+06         5.36482e+07
    9.79              106828             101.508        -2.16578e+06         5.35241e+07
    9.81              106585             101.252        -2.16086e+06         5.34001e+07
    9.83              106342             100.996        -2.15594e+06         5.32764e+07
    9.85              106100              100.74        -2.15104e+06         5.31529e+07
    9.87              105858             100.485        -2.14614e+06         5.30296e+07
    9.89              105616              100.23        -2.14124e+06         5.29065e+07
    9.91              105374             99.9754        -2.13636e+06         5.27836e+07
    9.93              105133             99.7214        -2.13148e+06         5.26609e+07
    9.95              104892             99.4679        -2.12661e+06         5.25384e+07
    9.97              104652             99.2147        -2.12175e+06         5.24162e+07
    9.99              104412             98.9621         -2.1169e+06         5.22942e+07
   10.01              104172             98.7098        -2.11206e+06         5.21724e+07
   10.03              103933              98.458        -2.10722e+06         5.20508e+07
   10.05              103694             98.2066        -2.10239e+06         5.19294e+07
   10.07              103455             97.9557        -2.09757e+06         5.18083e+07
   10.09              103217             97.7052        -2.09276e+06         5.16874e+07
   10.11              102979             97.4552        -2.08796e+06         5.15667e+07
   10.13              102742             97.2056        -2.08317e+06         5.14462e+07
   10.15              102505             96.9565        -2.07838e+06          5.1326e+07
   10.17              102268             96.7078         -2.0736e+06          5.1206e+07
   10.19              102032             96.4595        -2.06883e+06         5.10862e+07
   10.21              101796             96.2118        -2.06407e+06         5.09666e+07
   10.23              101561             95.9645        -2.05932e+06         5.08473e+07
   10.25              101325             95.7176        -2.05458e+06         5.07282e+07
   10.27              101091             95.4712        -2.04984e+06         5.06093e+07
   10.29              100856             95.2253        -2.04511e+06         5.04907e+07
   10.31              100623             94.9798         -2.0404e+06         5.03723e+07
   10.33              100389             94.7348        -2.03569e+06         5.02542e+07
   10.35              100156             94.4903        -2.03099e+06         5.01362e+07
   10.37             99923.2             94.2462         -2.0263e+06         5.00186e+07
   10.39             99690.9             94.0027        -2.02161e+06         4.99011e+07
   10.41               99459             93.7596        -2.01694e+06         4.97839e+07
   10.43             99227.5             93.5169        -2.01228e+06         4.96669e+07
   10.45             98996.4             93.2748        -2.00762e+06         4.95502e+07
   10.47             98765.7             93.0331        -2.00298e+06         4.94337e+07
   10.49             98535.5             92.7919        -1.99834e+06         4.93175e+07
   10.51             98305.7             92.5512        -1.99371e+06         4.92015e+07
   10.53             98076.2              92.311        -1.98909e+06         4.90857e+07
   10.55             97847.2             92.0713        -1.98448e+06         4.89702e+07
   10.57             97618.6              91.832        -1.97988e+06         4.88549e+07
   10.59             97390.5             91.5933        -1.97529e+06         4.87399e+07
   10.61             97162.7              91.355        -1.97071e+06         4.86252e+07
   10.63             96935.4             91.1173        -1.96613e+06         4.85106e+07
   10.65             96708.5               90.88        -1.96157e+06         4.83964e+07
   10.67             96482.1             90.6432        -1.95701e+06         4.82823e+07
   10.69             96256.1             90.4069        -1.95247e+06         4.81686e+07
   10.71             96030.5             90.1712        -1.94793e+06          4.8055e+07
   10.73             95805.3             89.9359        -1.94341e+06         4.79418e+07
   10.75             95580.5             89.7011        -1.93889e+06         4.78287e+07
   10.77             95356.2             89.4668        -1.93438e+06          4.7716e+07
   10.79             95132.4             89.2331        -1.92988e+06         4.76035e+07
   10.81               94909             88.9998         -1.9254e+06         4.74912e+07
   10.83               94686             88.7671        -1.92092e+06         4.73792e+07
   10.85             94463.4             88.5348        -1.91645e+06         4.72675e+07
   10.87             94241.3             88.3031        -1.91199e+06          4.7156e+07
   10.89             94019.7             88.0719        -1.90754e+06         4.70447e+07
   10.91             93798.4             87.8412         -1.9031e+06         4.69338e+07
   10.93             93577.7              87.611        -1.89867e+06         4.68231e+07
   10.95             93357.3             87.3813        -1.89425e+06         4.67126e+07
   10.97             93137.5             87.1521        -1.88983e+06         4.66024e+07
   10.99               92918             86.9235        -1.88543e+06         4.64925e+07
   11.01             92699.1             86.6954        -1.88104e+06         4.63828e+07
   11.03             92480.5             86.4678        -1.87666e+06         4.62734e+07
   11.05             92262.5             86.2407        -1.87229e+06         4.61643e+07
   11.07             92044.8             86.0142        -1.86793e+06         4.60554e+07
   11.09             91827.7             85.7881        -1.86357e+06         4.59468e+07
   11.11               91611             85.5626        -1.85923e+06         4.58384e+07
   11.13             91394.7             85.3377         -1.8549e+06         4.57303e+07
   11.15             91178.9             85.1132        -1.85058e+06         4.56225e+07
   11.17             90963.6             84.8893        -1.84626e+06         4.55149e+07
   11.19             90748.7             84.6659        -1.84196e+06         4.54077e+07
   11.21             90534.3              84.443        -1.83767e+06         4.53006e+07
   11.23             90320.4             84.2207        -1.83339e+06         4.51939e+07
   11.25             90106.9             83.9989        -1.82912e+06         4.50874e+07
   11.27             89893.9             83.7777        -1.82485e+06         4.49812e+07
   11.29             89681.4             83.5569         -1.8206e+06         4.48752e+07
   11.31             89469.3             83.3368        -1.81636e+06         4.47696e+07
   11.33             89257.7             83.1171        -1.81213e+06         4.46641e+07
   11.35             89046.5              82.898        -1.80791e+06          4.4559e+07
   11.37             88835.9             82.6794         -1.8037e+06         4.44541e+07
   11.39             88625.7             82.4614         -1.7995e+06         4.43495e+07
   11.41             88415.9             82.2439         -1.7953e+06         4.42452e+07
   11.43             88206.7             82.0269        -1.79112e+06         4.41412e+07
   11.45             87997.9             81.8105        -1.78695e+06         4.40374e+07
   11.47             87789.6             81.5946        -1.78279e+06         4.39339e+07
   11.49             87581.8             81.3793        -1.77864e+06         4.38307e+07
   11.51             87374.4             81.1645        -1.77451e+06         4.37277e+07
   11.53             87167.5             80.9503        -1.77038e+06          4.3625e+07
   11.55             86961.1             80.7366        -1.76626e+06         4.35226e+07
   11.57             86755.2             80.5234        -1.76215e+06         4.34205e+07
   11.59             86549.8             80.3108        -1.75805e+06         4.33186e+07
   11.61             86344.8             80.0988        -1.75396e+06         4.32171e+07
   11.63             86140.3             79.8873        -1.74989e+06         4.31158e+07
   11.65             85936.3             79.6763        -1.74582e+06         4.30147e+07
   11.67             85732.8             79.4659        -1.74176e+06          4.2914e+07
   11.69             85529.8             79.2561        -1.73772e+06         4.28135e+07
   11.71             85327.2             79.0468        -1.73368e+06         4.27133e+07
   11.73             85125.2              78.838        -1.72966e+06         4.26134e+07
   11.75             84923.6             78.6298        -1.72564e+06         4.25138e+07
   11.77             84722.5             78.4221        -1.72164e+06         4.24144e+07
   11.79             84521.9              78.215        -1.71765e+06         4.23154e+07
   11.81             84321.8             78.0085        -1.71366e+06         4.22166e+07
   11.83             84122.1             77.8025        -1.70969e+06          4.2118e+07
   11.85               83923             77.5971        -1.70573e+06         4.20198e+07
   11.87             83724.3             77.3922        -1.70178e+06         4.19218e+07
   11.89             83526.1             77.1879        -1.69784e+06         4.18242e+07
   11.91             83328.5             76.9841        -1.69391e+06         4.17268e+07
   11.93             83131.3             76.7809        -1.68999e+06         4.16296e+07
   11.95             82934.6             76.5782        -1.68608e+06         4.15328e+07
   11.97             82738.4             76.3761        -1.68218e+06         4.14362e+07
   11.99             82542.7             76.1746        -1.67829e+06           4.134e+07
   12.01             82347.4             75.9736        -1.67442e+06          4.1244e+07
   12.03             82152.7             75.7731        -1.67055e+06         4.11483e+07
   12.05             81958.5             75.5733        -1.66669e+06         4.10528e+07
   12.07             81764.7             75.3739        -1.66285e+06         4.09577e+07
   12.09             81571.5             75.1752        -1.65901e+06         4.08628e+07
   12.11             81378.7              74.977        -1.65519e+06         4.07682e+07
   12.13             81186.5             74.7793        -1.65138e+06         4.06739e+07
   12.15             80994.7             74.5823        -1.64757e+06         4.05799e+07
   12.17             80803.4             74.3857        -1.64378e+06         4.04862e+07
   12.19             80612.7             74.1898           -1.64e+06         4.03927e+07
   12.21             80422.4             73.9944        -1.63623e+06         4.02995e+07
   12.23             80232.6             73.7995        -1.63247e+06         4.02066e+07
   12.25             80043.3             73.6053        -1.62872e+06          4.0114e+07
   12.27             79854.5             73.4115        -1.62498e+06         4.00217e+07
   12.29             79666.2             73.2184        -1.62125e+06         3.99297e+07
   12.31             79478.4             73.0258        -1.61754e+06         3.98379e+07
   12.33             79291.1             72.8337        -1.61383e+06         3.97464e+07
   12.35             79104.3             72.6422        -1.61014e+06         3.96552e+07
   12.37               78918             72.4513        -1.60645e+06         3.95643e+07
   12.39             78732.2             72.2609        -1.60278e+06         3.94737e+07
   12.41             78546.9             72.0711        -1.59911e+06         3.93834e+07
   12.43             78362.1             71.8819        -1.59546e+06         3.92933e+07
   12.45             78177.8             71.6932        -1.59182e+06         3.92035e+07
   12.47             77993.9             71.5051        -1.58819e+06          3.9114e+07
   12.49             77810.6             71.3175        -1.58457e+06         3.90248e+07
   12.51             77627.8             71.1305        -1.58096e+06         3.89359e+07
   12.53             77445.5             70.9441        -1.57736e+06         3.88473e+07
   12.55             77263.7             70.7582        -1.57377e+06         3.87589e+07
   12.57             77082.3             70.5729        -1.57019e+06         3.86708e+07
   12.59             76901.5             70.3881        -1.56662e+06         3.85831e+07
   12.61             76721.2             70.2039        -1.56307e+06         3.84955e+07
   12.63             76541.4             70.0202        -1.55952e+06         3.84083e+07
   12.65               76362             69.8372        -1.55599e+06         3.83214e+07
   12.67             76183.2             69.6546        -1.55246e+06         3.82347e+07
   12.69             76004.9             69.4726        -1.54895e+06         3.81483e+07
   12.71               75827             69.2912        -1.54545e+06         3.80622e+07
   12.73             75649.7             69.1104        -1.54196e+06         3.79764e+07
   12.75             75472.9             68.9301        -1.53847e+06         3.78909e+07
   12.77             75296.5             68.7503          -1.535e+06         3.78057e+07
   12.79             75120.7             68.5712        -1.53154e+06         3.77207e+07
   12.81             74945.4             68.3925        -1.52809e+06          3.7636e+07
   12.83             74770.5             68.2145        -1.52466e+06         3.75516e+07
   12.85             74596.2             68.0369        -1.52123e+06         3.74675e+07
   12.87             74422.3               67.86        -1.51781e+06         3.73837e+07
   12.89               74249             67.6836        -1.51441e+06         3.73001e+07
   12.91             74076.1             67.5077        -1.51101e+06         3.72168e+07
   12.93             73903.8             67.3324        -1.50762e+06         3.71338e+07
   12.95             73731.9             67.1577        -1.50425e+06         3.70511e+07
   12.97             73560.5             66.9835        -1.50089e+06         3.69687e+07
   12.99             73389.7             66.8099        -1.49753e+06         3.68866e+07
   13.01             73219.3             66.6368        -1.49419e+06         3.68047e+07
   13.03             73049.4             66.4642        -1.49086e+06         3.67231e+07
   13.05             72880.1             66.2923        -1.48754e+06         3.66418e+07
   13.07             72711.2             66.1208        -1.48423e+06         3.65608e+07
   13.09             72542.8               65.95        -1.48093e+06           3.648e+07
   13.11             72374.9             65.7796        -1.47764e+06         3.63996e+07
   13.13             72207.5             65.6099        -1.47436e+06         3.63194e+07
   13.15             72040.6             65.4406        -1.47109e+06         3.62395e+07
   13.17             71874.2              65.272        -1.46783e+06         3.61598e+07
   13.19             71708.3             65.1038        -1.46459e+06         3.60805e+07
   13.21             71542.9             64.9363        -1.46135e+06         3.60014e+07
   13.23             71377.9             64.7692        -1.45812e+06         3.59226e+07
   13.25             71213.5             64.6027        -1.45491e+06         3.58441e+07
   13.27             71049.6             64.4368         -1.4517e+06         3.57658e+07
   13.29             70886.1             64.2714        -1.44851e+06         3.56879e+07
   13.31             70723.2             64.1065        -1.44533e+06         3.56102e+07
   13.33             70560.7             63.9422        -1.44215e+06         3.55328e+07
   13.35             70398.7             63.7784        -1.43899e+06         3.54556e+07
   13.37             70237.2             63.6152        -1.43584e+06         3.53788e+07
   13.39             70076.2             63.4525        -1.43269e+06         3.53022e+07
   13.41             69915.7             63.2904        -1.42956e+06         3.52259e+07
   13.43             69755.7             63.1288        -1.42644e+06         3.51498e+07
   13.45             69596.2             62.9677        -1.42333e+06         3.50741e+07
   13.47             69437.1             62.8072        -1.42023e+06         3.49986e+07
   13.49             69278.6             62.6472        -1.41714e+06         3.49234e+07
   13.51             69120.5             62.4878        -1.41406e+06         3.48484e+07
   13.53             68962.9             62.3288        -1.41099e+06         3.47738e+07
   13.55             68805.8             62.1705        -1.40794e+06         3.46994e+07
   13.57             68649.2             62.0126        -1.40489e+06         3.46253e+07
   13.59               68493             61.8553        -1.40185e+06         3.45514e+07
   13.61             68337.4             61.6985        -1.39882e+06         3.44778e+07
   13.63             68182.2             61.5423         -1.3958e+06         3.44045e+07
   13.65             68027.5             61.3866         -1.3928e+06         3.43315e+07
   13.67             67873.3             61.2314         -1.3898e+06         3.42587e+07
   13.69             67719.6             61.0767        -1.38682e+06         3.41862e+07
   13.71             67566.4             60.9226        -1.38384e+06          3.4114e+07
   13.73             67413.6              60.769        -1.38087e+06         3.40421e+07
   13.75             67261.3             60.6159        -1.37792e+06         3.39704e+07
   13.77             67109.5             60.4634        -1.37497e+06         3.38989e+07
   13.79             66958.2             60.3114        -1.37204e+06         3.38278e+07
   13.81             66807.4             60.1599        -1.36911e+06         3.37569e+07
   13.83               66657             60.0089         -1.3662e+06         3.36863e+07
   13.85             66507.1             59.8584        -1.36329e+06         3.36159e+07
   13.87             66357.7             59.7085         -1.3604e+06         3.35459e+07
   13.89             66208.8             59.5591        -1.35751e+06          3.3476e+07
   13.91             66060.3             59.4102        -1.35464e+06         3.34065e+07
   13.93             65912.3             59.2618        -1.35178e+06         3.33372e+07
   13.95             65764.8              59.114        -1.34892e+06         3.32682e+07
   13.97             65617.7             58.9666        -1.34608e+06         3.31994e+07
   13.99             65471.1             58.8198        -1.34324e+06         3.31309e+07
   14.01               65325             58.6735        -1.34042e+06         3.30627e+07
   14.03             65179.4             58.5277         -1.3376e+06         3.29947e+07
   14.05             65034.2             58.3824         -1.3348e+06          3.2927e+07
   14.07             64889.5             58.2376        -1.33201e+06         3.28595e+07
   14.09             64745.2             58.0933        -1.32922e+06         3.27923e+07
   14.11             64601.5             57.9496        -1.32645e+06         3.27254e+07
   14.13             64458.2             57.8063        -1.32368e+06         3.26587e+07
   14.15             64315.3             57.6636        -1.32093e+06         3.25923e+07
   14.17             64172.9             57.5213        -1.31818e+06         3.25261e+07
   14.19               64031             57.3796        -1.31545e+06         3.24602e+07
   14.21             63889.6             57.2384        -1.31272e+06         3.23946e+07
   14.23             63748.6             57.0976        -1.31001e+06         3.23292e+07
   14.25               63608             56.9574         -1.3073e+06         3.22641e+07
   14.27             63467.9             56.8177        -1.30461e+06         3.21992e+07
   14.29             63328.3             56.6784        -1.30192e+06         3.21346e+07
   14.31             63189.2             56.5397        -1.29925e+06         3.20702e+07
   14.33             63050.4             56.4014        -1.29658e+06         3.20061e+07
   14.35             62912.2             56.2637        -1.29392e+06         3.19423e+07
   14.37             62774.4             56.1264        -1.29128e+06         3.18787e+07
   14.39             62637.1             55.9897        -1.28864e+06         3.18153e+07
   14.41             62500.2             55.8534        -1.28601e+06         3.17522e+07
   14.43             62363.7             55.7176        -1.28339e+06         3.16893e+07
   14.45             62227.7             55.5823        -1.28078e+06         3.16267e+07
   14.47             62092.2             55.4475        -1.27818e+06         3.15644e+07
   14.49             61957.1             55.3132        -1.27559e+06         3.15023e+07
   14.51             61822.5             55.1793        -1.27301e+06         3.14404e+07
   14.53             61688.3              55.046        -1.27044e+06         3.13788e+07
   14.55             61554.5             54.9131        -1.26788e+06         3.13175e+07
   14.57             61421.2             54.7807        -1.26533e+06         3.12564e+07
   14.59             61288.3             54.6488        -1.26279e+06         3.11955e+07
   14.61             61155.9             54.5173        -1.26025e+06         3.11349e+07
   14.63             61023.9             54.3864        -1.25773e+06         3.10745e+07
   14.65             60892.4             54.2559        -1.25522e+06         3.10144e+07
   14.67             60761.3             54.1259        -1.25271e+06         3.09545e+07
   14.69             60630.6             53.9963        -1.25021e+06         3.08948e+07
   14.71             60500.4             53.8673        -1.24773e+06         3.08354e+07
   14.73             60370.6             53.7387        -1.24525e+06         3.07763e+07
   14.75             60241.3             53.6105        -1.24278e+06         3.07174e+07
   14.77             60112.4             53.4829        -1.24032e+06         3.06587e+07
   14.79             59983.9             53.3557        -1.23787e+06         3.06002e+07
   14.81             59855.8             53.2289        -1.23543e+06          3.0542e+07
   14.83             59728.2             53.1027          -1.233e+06         3.04841e+07
   14.85               59601             52.9769        -1.23058e+06         3.04263e+07
   14.87             59474.3             52.8515        -1.22817e+06         3.03688e+07
   14.89             59347.9             52.7266        -1.22576e+06         3.03116e+07
   14.91               59222             52.6022        -1.22337e+06         3.02546e+07
   14.93             59096.5             52.4782        -1.22098e+06         3.01978e+07
   14.95             58971.5             52.3547         -1.2186e+06         3.01412e+07
   14.97             58846.8             52.2316        -1.21623e+06         3.00849e+07
   14.99             58722.6              52.109        -1.21387e+06         3.00288e+07
   15.01             58598.8             51.9868        -1.21152e+06          2.9973e+07
   15.03             58475.4             51.8651        -1.20918e+06         2.99173e+07
   15.05             58352.5             51.7438        -1.20685e+06         2.98619e+07
   15.07               58230              51.623        -1.20453e+06         2.98068e+07
   15.09             58107.8             51.5026        -1.20221e+06         2.97518e+07
   15.11             57986.1             51.3827         -1.1999e+06         2.96971e+07
   15.13             57864.8             51.2632        -1.19761e+06         2.96427e+07
   15.15               57744             51.1441        -1.19532e+06         2.95884e+07
   15.17             57623.5             51.0255        -1.19304e+06         2.95344e+07
   15.19             57503.4             50.9073        -1.19076e+06         2.94806e+07
   15.21             57383.8             50.7895         -1.1885e+06          2.9427e+07
   15.23             57264.5             50.6722        -1.18625e+06         2.93736e+07
   15.25             57145.7             50.5553          -1.184e+06         2.93205e+07
   15.27             57027.3             50.4389        -1.18176e+06         2.92676e+07
   15.29             56909.2             50.3229        -1.17953e+06         2.92149e+07
   15.31             56791.6             50.2073        -1.17731e+06         2.91624e+07
   15.33             56674.4             50.0921         -1.1751e+06         2.91102e+07
   15.35             56557.6             49.9773         -1.1729e+06         2.90582e+07
   15.37             56441.1              49.863         -1.1707e+06         2.90064e+07
   15.39             56325.1             49.7491        -1.16852e+06         2.89548e+07
   15.41             56209.5             49.6356        -1.16634e+06         2.89034e+07
   15.43             56094.3             49.5226        -1.16417e+06         2.88522e+07
   15.45             55979.4             49.4099          -1.162e+06         2.88013e+07
   15.47               55865             49.2977        -1.15985e+06         2.87506e+07
   15.49             55750.9             49.1858        -1.15771e+06            2.87e+07
   15.51             55637.3             49.0744        -1.15557e+06         2.86497e+07
   15.53               55524             48.9634        -1.15344e+06         2.85997e+07
   15.55             55411.1             48.8528        -1.15132e+06         2.85498e+07
   15.57             55298.6             48.7427        -1.14921e+06         2.85001e+07
   15.59             55186.5             48.6329         -1.1471e+06         2.84506e+07
   15.61             55074.8             48.5235          -1.145e+06         2.84014e+07
   15.63             54963.4             48.4145        -1.14292e+06         2.83524e+07
   15.65             54852.4              48.306        -1.14083e+06         2.83035e+07
   15.67             54741.9             48.1978        -1.13876e+06         2.82549e+07
   15.69             54631.7               48.09         -1.1367e+06         2.82065e+07
   15.71             54521.8             47.9827        -1.13464e+06         2.81583e+07
   15.73             54412.4             47.8757        -1.13259e+06         2.81102e+07
   15.75             54303.3             47.7691        -1.13055e+06         2.80624e+07
   15.77             54194.6             47.6629        -1.12852e+06         2.80148e+07
   15.79             54086.3             47.5571        -1.12649e+06         2.79674e+07
   15.81             53978.3             47.4517        -1.12447e+06         2.79202e+07
   15.83             53870.7             47.3466        -1.12246e+06         2.78732e+07
   15.85             53763.5              47.242        -1.12046e+06         2.78264e+07
   15.87             53656.6             47.1377        -1.11847e+06         2.77798e+07
   15.89             53550.1             47.0338        -1.11648e+06         2.77334e+07
   15.91               53444             46.9303         -1.1145e+06         2.76872e+07
   15.93             53338.2             46.8272        -1.11253e+06         2.76412e+07
   15.95             53232.8             46.7245        -1.11056e+06         2.75954e+07
   15.97             53127.8             46.6221        -1.10861e+06         2.75497e+07
   15.99             53023.1             46.5201        -1.10666e+06         2.75043e+07
   16.01             52918.8             46.4185        -1.10472e+06         2.74591e+07
   16.03             52814.8             46.3172        -1.10278e+06          2.7414e+07
   16.05             52711.2             46.2163        -1.10085e+06         2.73692e+07
   16.07             52607.9             46.1158        -1.09894e+06         2.73245e+07
   16.09               52505             46.0156        -1.09702e+06           2.728e+07
   16.11             52402.5             45.9159        -1.09512e+06         2.72357e+07
   16.13             52300.2             45.8164        -1.09322e+06         2.71916e+07
   16.15             52198.4             45.7174        -1.09133e+06         2.71477e+07
   16.17             52096.9             45.6186        -1.08945e+06          2.7104e+07
   16.19             51995.7             45.5203        -1.08757e+06         2.70605e+07
   16.21             51894.9             45.4223         -1.0857e+06         2.70171e+07
   16.23             51794.4             45.3246        -1.08384e+06         2.69739e+07
   16.25             51694.3             45.2274        -1.08198e+06         2.69309e+07
   16.27             51594.4             45.1304        -1.08014e+06         2.68881e+07
   16.29               51495             45.0338         -1.0783e+06         2.68455e+07
   16.31             51395.9             44.9376        -1.07646e+06         2.68031e+07
   16.33             51297.1             44.8417        -1.07464e+06         2.67608e+07
   16.35             51198.6             44.7461        -1.07282e+06         2.67187e+07
   16.37             51100.5             44.6509          -1.071e+06         2.66768e+07
   16.39             51002.7              44.556         -1.0692e+06         2.66351e+07
   16.41             50905.2             44.4615         -1.0674e+06         2.65935e+07
   16.43             50808.1             44.3673        -1.06561e+06         2.65521e+07
   16.45             50711.3             44.2734        -1.06382e+06         2.65109e+07
   16.47             50614.8             44.1799        -1.06204e+06         2.64699e+07
   16.49             50518.7             44.0867        -1.06027e+06          2.6429e+07
   16.51             50422.8             43.9938         -1.0585e+06         2.63883e+07
   16.53             50327.3             43.9013        -1.05674e+06         2.63478e+07
   16.55             50232.1             43.8091        -1.05499e+06         2.63075e+07
   16.57             50137.3             43.7172        -1.05325e+06         2.62673e+07
   16.59             50042.7             43.6257        -1.05151e+06         2.62273e+07
   16.61             49948.5             43.5344        -1.04978e+06         2.61874e+07
   16.63             49854.5             43.4435        -1.04805e+06         2.61478e+07
   16.65             49760.9             43.3529        -1.04633e+06         2.61083e+07
   16.67             49667.6             43.2626        -1.04462e+06         2.60689e+07
   16.69             49574.7             43.1727        -1.04291e+06         2.60297e+07
   16.71               49482              43.083        -1.04121e+06         2.59907e+07
   16.73             49389.6             42.9937        -1.03952e+06         2.59519e+07
   16.75             49297.6             42.9046        -1.03783e+06         2.59132e+07
   16.77             49205.8             42.8159        -1.03615e+06         2.58746e+07
   16.79             49114.3             42.7275        -1.03447e+06         2.58363e+07
   16.81             49023.2             42.6394         -1.0328e+06          2.5798e+07
   16.83             48932.4             42.5516        -1.03114e+06           2.576e+07
   16.85             48841.8             42.4641        -1.02948e+06         2.57221e+07
   16.87             48751.6             42.3769        -1.02783e+06         2.56843e+07
   16.89             48661.6               42.29        -1.02619e+06         2.56468e+07
   16.91             48571.9             42.2034        -1.02455e+06         2.56093e+07
   16.93             48482.6             42.1171        -1.02292e+06          2.5572e+07
   16.95             48393.5             42.0311        -1.02129e+06         2.55349e+07
   16.97             48304.7             41.9454        -1.01967e+06         2.54979e+07
   16.99             48216.2               41.86        -1.01806e+06         2.54611e+07
   17.01               48128             41.7749        -1.01645e+06         2.54245e+07
   17.03             48040.1               41.69        -1.01484e+06         2.53879e+07
   17.05             47952.5             41.6055        -1.01325e+06         2.53516e+07
   17.07             47865.1             41.5212        -1.01166e+06         2.53153e+07
   17.09             47778.1             41.4372        -1.01007e+06         2.52793e+07
   17.11             47691.3             41.3535        -1.00849e+06         2.52433e+07
   17.13             47604.8             41.2701        -1.00692e+06         2.52075e+07
   17.15             47518.6             41.1869        -1.00535e+06         2.51719e+07
   17.17             47432.6              41.104        -1.00379e+06         2.51364e+07
   17.19               47347             41.0214        -1.00223e+06          2.5101e+07
   17.21             47261.6             40.9391        -1.00068e+06         2.50658e+07
   17.23             47176.4             40.8571             -999133         2.50308e+07
   17.25             47091.6             40.7753             -997592         2.49958e+07
   17.27               47007             40.6938             -996057          2.4961e+07
   17.29             46922.7             40.6125             -994528         2.49264e+07
   17.31             46838.7             40.5316             -993004         2.48919e+07
   17.33             46754.9             40.4508             -991486         2.48575e+07
   17.35             46671.4             40.3704             -989972         2.48232e+07
   17.37             46588.1             40.2902             -988465         2.47891e+07
   17.39             46505.2             40.2103             -986962         2.47552e+07
   17.41             46422.4             40.1306             -985465         2.47213e+07
   17.43               46340             40.0512             -983973         2.46876e+07
   17.45             46257.8              39.972             -982486          2.4654e+07
   17.47             46175.8             39.8931             -981004         2.46206e+07
   17.49             46094.1             39.8144             -979528         2.45873e+07
   17.51             46012.7              39.736             -978056         2.45541e+07
   17.53             45931.5             39.6579             -976590          2.4521e+07
   17.55             45850.6             39.5799             -975129         2.44881e+07
   17.57             45769.9             39.5023             -973673         2.44553e+07
   17.59             45689.4             39.4248             -972221         2.44226e+07
   17.61             45609.3             39.3477             -970775         2.43901e+07
   17.63             45529.3             39.2707             -969334         2.43576e+07
   17.65             45449.6              39.194             -967897         2.43253e+07
   17.67             45370.2             39.1175             -966466         2.42932e+07
   17.69               45291             39.0413             -965039         2.42611e+07
   17.71               45212             38.9653             -963617         2.42292e+07
   17.73             45133.2             38.8896             -962200         2.41973e+07
   17.75             45054.8              38.814             -960788         2.41656e+07
   17.77             44976.5             38.7387             -959380         2.41341e+07
   17.79             44898.5             38.6636             -957977         2.41026e+07
   17.81             44820.7             38.5888             -956579         2.40712e+07
   17.83             44743.1             38.5142             -955185           2.404e+07
   17.85             44665.8             38.4398             -953796         2.40089e+07
   17.87             44588.7             38.3656             -952411         2.39779e+07
   17.89             44511.8             38.2917             -951031          2.3947e+07
   17.91             44435.2             38.2179             -949656         2.39162e+07
   17.93             44358.8             38.1444             -948285         2.38856e+07
   17.95             44282.6             38.0711             -946918          2.3855e+07
   17.97             44206.6              37.998             -945556         2.38246e+07
   17.99             44130.9             37.9252             -944198         2.37942e+07
   18.01             44055.4             37.8525             -942845          2.3764e+07
   18.03             43980.1               37.78             -941496         2.37339e+07
   18.05               43905             37.7078             -940151         2.37039e+07
   18.07             43830.1             37.6358             -938811          2.3674e+07
   18.09             43755.5              37.564             -937474         2.36442e+07
   18.11               43681             37.4923             -936142         2.36145e+07
   18.13             43606.8             37.4209             -934814         2.35849e+07
   18.15             43532.8             37.3497             -933491         2.35554e+07
   18.17               43459             37.2787             -932171         2.35261e+07
   18.19             43385.4             37.2079             -930856         2.34968e+07
   18.21               43312             37.1373             -929544         2.34676e+07
   18.23             43238.8             37.0668             -928237         2.34385e+07
   18.25             43165.9             36.9966             -926933         2.34095e+07
   18.27             43093.1             36.9266             -925634         2.33806e+07
   18.29             43020.5             36.8567             -924338         2.33519e+07
   18.31             42948.2             36.7871             -923047         2.33232e+07
   18.33               42876             36.7176             -921759         2.32946e+07
   18.35               42804             36.6484             -920476         2.32661e+07
   18.37             42732.3             36.5793             -919196         2.32377e+07
   18.39             42660.7             36.5104             -917919         2.32094e+07
   18.41             42589.3             36.4417             -916647         2.31811e+07
   18.43             42518.1             36.3731             -915378          2.3153e+07
   18.45             42447.2             36.3048             -914114          2.3125e+07
   18.47             42376.4             36.2366             -912852          2.3097e+07
   18.49             42305.8             36.1686             -911595         2.30692e+07
   18.51             42235.3             36.1008             -910341         2.30414e+07
   18.53             42165.1             36.0332             -909091         2.30137e+07
   18.55             42095.1             35.9657             -907844         2.29862e+07
   18.57             42025.2             35.8984             -906601         2.29587e+07
   18.59             41955.5             35.8313             -905361         2.29312e+07
   18.61             41886.1             35.7644             -904125         2.29039e+07
   18.63             41816.7             35.6976             -902892         2.28767e+07
   18.65             41747.6              35.631             -901663         2.28495e+07
   18.67             41678.7             35.5645             -900437         2.28224e+07
   18.69             41609.9             35.4982             -899215         2.27954e+07
   18.71             41541.3             35.4321             -897996         2.27685e+07
   18.73             41472.9             35.3662             -896780         2.27417e+07
   18.75             41404.7             35.3004             -895568         2.27149e+07
   18.77             41336.6             35.2348             -894359         2.26882e+07
   18.79             41268.7             35.1693             -893153         2.26616e+07
   18.81               41201              35.104             -891950         2.26351e+07
   18.83             41133.4             35.0388             -890751         2.26087e+07
   18.85             41066.1             34.9738             -889555         2.25823e+07
   18.87             40998.8              34.909             -888362          2.2556e+07
   18.89             40931.8             34.8443             -887172         2.25298e+07
   18.91             40864.9             34.7797             -885985         2.25036e+07
   18.93             40798.2             34.7153             -884801         2.24776e+07
   18.95             40731.6             34.6511             -883620         2.24516e+07
   18.97             40665.3              34.587             -882442         2.24256e+07
   18.99               40599              34.523             -881268         2.23998e+07
   19.01               40533             34.4592             -880096          2.2374e+07
   19.03               40467             34.3956             -878927         2.23483e+07
   19.05             40401.3             34.3321             -877761         2.23227e+07
   19.07             40335.7             34.2687             -876598         2.22971e+07
   19.09             40270.2             34.2055             -875438         2.22716e+07
   19.11               40205             34.1424             -874280         2.22461e+07
   19.13             40139.8             34.0794             -873126         2.22208e+07
   19.15             40074.8             34.0166             -871974         2.21954e+07
   19.17               40010             33.9539             -870825         2.21702e+07
   19.19             39945.3             33.8914             -869679          2.2145e+07
   19.21             39880.8              33.829             -868535         2.21199e+07
   19.23             39816.4             33.7667             -867394         2.20949e+07
   19.25             39752.2             33.7045             -866256         2.20699e+07
   19.27             39688.1             33.6425             -865121         2.20449e+07
   19.29             39624.1             33.5806             -863988         2.20201e+07
   19.31             39560.3             33.5189             -862857         2.19953e+07
   19.33             39496.7             33.4572             -861729         2.19705e+07
   19.35             39433.2             33.3957             -860604         2.19458e+07
   19.37             39369.8             33.3343             -859481         2.19212e+07
   19.39             39306.6             33.2731             -858361         2.18966e+07
   19.41             39243.5              33.212             -857243         2.18721e+07
   19.43             39180.5             33.1509             -856128         2.18476e+07
   19.45             39117.7             33.0901             -855015         2.18232e+07
   19.47               39055             33.0293             -853905         2.17989e+07
   19.49             38992.4             32.9686             -852796         2.17746e+07
   19.51               38930             32.9081             -851691         2.17503e+07
   19.53             38867.7             32.8477             -850587         2.17261e+07
   19.55             38805.5             32.7874             -849486          2.1702e+07
   19.57             38743.5             32.7272             -848387         2.16779e+07
   19.59             38681.6             32.6671             -847291         2.16539e+07
   19.61             38619.8             32.6071             -846196         2.16299e+07
   19.63             38558.2             32.5473             -845104          2.1606e+07
   19.65             38496.7             32.4875             -844014         2.15821e+07
   19.67             38435.3             32.4279             -842926         2.15582e+07
   19.69               38374             32.3684             -841840         2.15344e+07
   19.71             38312.9              32.309             -840757         2.15107e+07
   19.73             38251.9             32.2497             -839675          2.1487e+07
   19.75               38191             32.1905             -838596         2.14634e+07
   19.77             38130.2             32.1314             -837519         2.14397e+07
   19.79             38069.5             32.0724             -836443         2.14162e+07
   19.81               38009             32.0135             -835370         2.13927e+07
   19.83             37948.5             31.9547             -834299         2.13692e+07
   19.85             37888.2              31.896             -833229         2.13458e+07
   19.87               37828             31.8374             -832162         2.13224e+07
   19.89               37768             31.7789             -831096          2.1299e+07
   19.91               37708             31.7205             -830033         2.12757e+07
   19.93             37648.2             31.6622             -828971         2.12525e+07
   19.95             37588.4              31.604             -827911         2.12293e+07
   19.97             37528.8             31.5459             -826853         2.12061e+07
   19.99             37469.3             31.4879             -825797         2.11829e+07
