## w(eV)         sigma(Sm^-1)     kappa(W(mK)^-1)        L12/e(Am^-1)      L22/e^2(Wm^-1)
    0.01              205270             390.731        -4.17284e+06         1.21843e+08
    0.03              205268             390.725        -4.17282e+06         1.21842e+08
    0.05              205264             390.713        -4.17279e+06         1.21841e+08
    0.07              205259             390.695        -4.17273e+06         1.21839e+08
    0.09              205251             390.671        -4.17265e+06         1.21837e+08
    0.11              205242             390.641        -4.17256e+06         1.21834e+08
    0.13              205231             390.605        -4.17244e+06         1.21831e+08
    0.15              205219             390.563        -4.17231e+06         1.21826e+08
    0.17              205204             390.514        -4.17216e+06         1.21822e+08
    0.19              205188              390.46        -4.17199e+06         1.21816e+08
    0.21              205170               390.4         -4.1718e+06         1.21811e+08
    0.23              205150             390.334        -4.17159e+06         1.21804e+08
    0.25              205128             390.262        -4.17136e+06         1.21797e+08
    0.27              205104             390.184        -4.17112e+06         1.21789e+08
    0.29              205079               390.1        -4.17085e+06         1.21781e+08
    0.31              205052              390.01        -4.17057e+06         1.21772e+08
    0.33              205023             389.914        -4.17027e+06         1.21763e+08
    0.35              204992             389.812        -4.16995e+06         1.21753e+08
    0.37              204960             389.704        -4.16961e+06         1.21742e+08
    0.39              204925              389.59        -4.16925e+06         1.21731e+08
    0.41              204889             389.471        -4.16887e+06         1.21719e+08
    0.43              204852             389.345        -4.16848e+06         1.21707e+08
    0.45              204812             389.213        -4.16806e+06         1.21694e+08
    0.47              204771             389.076        -4.16763e+06         1.21681e+08
    0.49              204727             388.932        -4.16718e+06         1.21667e+08
    0.51              204682             388.783        -4.16671e+06         1.21652e+08
    0.53              204636             388.627        -4.16622e+06         1.21637e+08
    0.55              204587             388.466        -4.16572e+06         1.21621e+08
    0.57              204537             388.299        -4.16519e+06         1.21605e+08
    0.59              204485             388.126        -4.16465e+06         1.21588e+08
    0.61              204432             387.947        -4.16409e+06          1.2157e+08
    0.63              204376             387.762        -4.16351e+06         1.21552e+08
    0.65              204319             387.572        -4.16292e+06         1.21533e+08
    0.67              204261             387.375         -4.1623e+06         1.21514e+08
    0.69              204200             387.173        -4.16167e+06         1.21494e+08
    0.71              204138             386.965        -4.16102e+06         1.21474e+08
    0.73              204074             386.751        -4.16035e+06         1.21453e+08
    0.75              204008             386.532        -4.15967e+06         1.21431e+08
    0.77              203941             386.306        -4.15896e+06         1.21409e+08
    0.79              203872             386.075        -4.15824e+06         1.21387e+08
    0.81              203802             385.838        -4.15751e+06         1.21364e+08
    0.83              203729             385.596        -4.15675e+06          1.2134e+08
    0.85              203655             385.348        -4.15598e+06         1.21316e+08
    0.87              203580             385.094        -4.15518e+06         1.21291e+08
    0.89              203503             384.834        -4.15438e+06         1.21265e+08
    0.91              203424             384.568        -4.15355e+06         1.21239e+08
    0.93              203343             384.297        -4.15271e+06         1.21213e+08
    0.95              203261             384.021        -4.15185e+06         1.21186e+08
    0.97              203177             383.739        -4.15097e+06         1.21158e+08
    0.99              203092             383.451        -4.15008e+06          1.2113e+08
    1.01              203005             383.157        -4.14917e+06         1.21101e+08
    1.03              202917             382.858        -4.14824e+06         1.21072e+08
    1.05              202827             382.554        -4.14729e+06         1.21042e+08
    1.07              202735             382.244        -4.14633e+06         1.21012e+08
    1.09              202642             381.928        -4.14535e+06         1.20981e+08
    1.11              202547             381.607        -4.14435e+06         1.20949e+08
    1.13              202451              381.28        -4.14334e+06         1.20917e+08
    1.15              202353             380.948        -4.14231e+06         1.20885e+08
    1.17              202253             380.611        -4.14127e+06         1.20851e+08
    1.19              202152             380.268         -4.1402e+06         1.20818e+08
    1.21              202050              379.92        -4.13913e+06         1.20784e+08
    1.23              201946             379.566        -4.13803e+06         1.20749e+08
    1.25              201840             379.207        -4.13692e+06         1.20714e+08
    1.27              201733             378.843        -4.13579e+06         1.20678e+08
    1.29              201625             378.474        -4.13464e+06         1.20641e+08
    1.31              201515             378.099        -4.13348e+06         1.20605e+08
    1.33              201403             377.719        -4.13231e+06         1.20567e+08
    1.35              201290             377.334        -4.13111e+06         1.20529e+08
    1.37              201176             376.943         -4.1299e+06         1.20491e+08
    1.39              201060             376.548        -4.12867e+06         1.20452e+08
    1.41              200942             376.147        -4.12743e+06         1.20412e+08
    1.43              200824             375.741        -4.12617e+06         1.20372e+08
    1.45              200703              375.33         -4.1249e+06         1.20332e+08
    1.47              200582             374.914         -4.1236e+06         1.20291e+08
    1.49              200459             374.493        -4.12229e+06         1.20249e+08
    1.51              200334             374.067        -4.12097e+06         1.20207e+08
    1.53              200208             373.636        -4.11963e+06         1.20164e+08
    1.55              200081               373.2        -4.11827e+06         1.20121e+08
    1.57              199952             372.759         -4.1169e+06         1.20077e+08
    1.59              199822             372.314        -4.11551e+06         1.20033e+08
    1.61              199691             371.863         -4.1141e+06         1.19988e+08
    1.63              199558             371.408        -4.11268e+06         1.19942e+08
    1.65              199423             370.948        -4.11124e+06         1.19897e+08
    1.67              199288             370.483        -4.10978e+06          1.1985e+08
    1.69              199151             370.013        -4.10831e+06         1.19803e+08
    1.71              199013             369.538        -4.10682e+06         1.19756e+08
    1.73              198873             369.059        -4.10532e+06         1.19708e+08
    1.75              198732             368.576         -4.1038e+06         1.19659e+08
    1.77              198589             368.087        -4.10226e+06          1.1961e+08
    1.79              198446             367.594         -4.1007e+06         1.19561e+08
    1.81              198301             367.097        -4.09913e+06          1.1951e+08
    1.83              198154             366.595        -4.09754e+06          1.1946e+08
    1.85              198006             366.089        -4.09594e+06         1.19409e+08
    1.87              197857             365.578        -4.09432e+06         1.19357e+08
    1.89              197707             365.063        -4.09268e+06         1.19305e+08
    1.91              197555             364.543        -4.09102e+06         1.19252e+08
    1.93              197402             364.019        -4.08935e+06         1.19199e+08
    1.95              197248             363.491        -4.08766e+06         1.19145e+08
    1.97              197093             362.959        -4.08595e+06          1.1909e+08
    1.99              196936             362.422        -4.08422e+06         1.19035e+08
    2.01              196777             361.881        -4.08248e+06          1.1898e+08
    2.03              196618             361.337        -4.08072e+06         1.18924e+08
    2.05              196457             360.788        -4.07894e+06         1.18867e+08
    2.07              196295             360.234        -4.07714e+06          1.1881e+08
    2.09              196132             359.677        -4.07533e+06         1.18753e+08
    2.11              195967             359.116         -4.0735e+06         1.18694e+08
    2.13              195801             358.551        -4.07164e+06         1.18636e+08
    2.15              195634             357.982        -4.06978e+06         1.18576e+08
    2.17              195465              357.41        -4.06789e+06         1.18516e+08
    2.19              195295             356.833        -4.06598e+06         1.18456e+08
    2.21              195124             356.253        -4.06406e+06         1.18395e+08
    2.23              194952             355.668        -4.06211e+06         1.18333e+08
    2.25              194778              355.08        -4.06015e+06         1.18271e+08
    2.27              194603             354.489        -4.05816e+06         1.18209e+08
    2.29              194427             353.894        -4.05616e+06         1.18145e+08
    2.31              194250             353.295        -4.05414e+06         1.18082e+08
    2.33              194071             352.693         -4.0521e+06         1.18017e+08
    2.35              193891             352.087        -4.05004e+06         1.17952e+08
    2.37              193709             351.478        -4.04796e+06         1.17887e+08
    2.39              193527             350.865        -4.04585e+06         1.17821e+08
    2.41              193343             350.249        -4.04373e+06         1.17754e+08
    2.43              193157              349.63        -4.04159e+06         1.17687e+08
    2.45              192971             349.007        -4.03943e+06         1.17619e+08
    2.47              192783             348.381        -4.03724e+06          1.1755e+08
    2.49              192594             347.752        -4.03503e+06         1.17481e+08
    2.51              192404              347.12        -4.03281e+06         1.17412e+08
    2.53              192212             346.484        -4.03056e+06         1.17342e+08
    2.55              192019             345.846        -4.02829e+06         1.17271e+08
    2.57              191824             345.204        -4.02599e+06         1.17199e+08
    2.59              191629              344.56        -4.02368e+06         1.17127e+08
    2.61              191432             343.912        -4.02134e+06         1.17055e+08
    2.63              191234             343.262        -4.01898e+06         1.16981e+08
    2.65              191034             342.608         -4.0166e+06         1.16907e+08
    2.67              190833             341.952        -4.01419e+06         1.16833e+08
    2.69              190631             341.293        -4.01177e+06         1.16758e+08
    2.71              190427             340.632        -4.00931e+06         1.16682e+08
    2.73              190222             339.967        -4.00684e+06         1.16606e+08
    2.75              190016               339.3        -4.00434e+06         1.16529e+08
    2.77              189809              338.63        -4.00181e+06         1.16451e+08
    2.79              189600             337.958        -3.99927e+06         1.16373e+08
    2.81              189390             337.283        -3.99669e+06         1.16294e+08
    2.83              189178             336.606         -3.9941e+06         1.16215e+08
    2.85              188965             335.926        -3.99147e+06         1.16134e+08
    2.87              188751             335.244        -3.98883e+06         1.16054e+08
    2.89              188535             334.559        -3.98615e+06         1.15972e+08
    2.91              188318             333.872        -3.98346e+06          1.1589e+08
    2.93              188099             333.183        -3.98073e+06         1.15807e+08
    2.95              187880             332.491        -3.97798e+06         1.15724e+08
    2.97              187658             331.797        -3.97521e+06          1.1564e+08
    2.99              187436             331.101        -3.97241e+06         1.15555e+08
    3.01              187212             330.403        -3.96958e+06         1.15469e+08
    3.03              186987             329.703        -3.96672e+06         1.15383e+08
    3.05              186760             329.001        -3.96384e+06         1.15297e+08
    3.07              186532             328.296        -3.96093e+06         1.15209e+08
    3.09              186302              327.59        -3.95799e+06         1.15121e+08
    3.11              186071             326.882        -3.95503e+06         1.15032e+08
    3.13              185839             326.171        -3.95204e+06         1.14943e+08
    3.15              185605             325.459        -3.94902e+06         1.14853e+08
    3.17              185370             324.745        -3.94597e+06         1.14762e+08
    3.19              185133              324.03        -3.94289e+06          1.1467e+08
    3.21              184895             323.312        -3.93979e+06         1.14578e+08
    3.23              184655             322.593        -3.93666e+06         1.14485e+08
    3.25              184414             321.872         -3.9335e+06         1.14392e+08
    3.27              184172             321.149        -3.93031e+06         1.14298e+08
    3.29              183928             320.425        -3.92709e+06         1.14203e+08
    3.31              183683             319.699        -3.92384e+06         1.14107e+08
    3.33              183436             318.972        -3.92056e+06         1.14011e+08
    3.35              183188             318.243        -3.91726e+06         1.13914e+08
    3.37              182938             317.512        -3.91392e+06         1.13816e+08
    3.39              182687             316.781        -3.91056e+06         1.13718e+08
    3.41              182435             316.047        -3.90716e+06         1.13619e+08
    3.43              182181             315.313        -3.90374e+06         1.13519e+08
    3.45              181925             314.577        -3.90028e+06         1.13418e+08
    3.47              181668             313.839         -3.8968e+06         1.13317e+08
    3.49              181410             313.101        -3.89328e+06         1.13215e+08
    3.51              181150             312.361        -3.88974e+06         1.13113e+08
    3.53              180889              311.62        -3.88616e+06          1.1301e+08
    3.55              180626             310.878        -3.88256e+06         1.12906e+08
    3.57              180362             310.134        -3.87892e+06         1.12801e+08
    3.59              180096              309.39        -3.87526e+06         1.12696e+08
    3.61              179829             308.644        -3.87156e+06          1.1259e+08
    3.63              179561             307.897        -3.86784e+06         1.12483e+08
    3.65              179291              307.15        -3.86408e+06         1.12376e+08
    3.67              179019             306.401        -3.86029e+06         1.12268e+08
    3.69              178747             305.651        -3.85648e+06         1.12159e+08
    3.71              178472               304.9        -3.85263e+06          1.1205e+08
    3.73              178197             304.149        -3.84875e+06         1.11939e+08
    3.75              177919             303.396        -3.84484e+06         1.11829e+08
    3.77              177641             302.643        -3.84091e+06         1.11717e+08
    3.79              177361             301.889        -3.83694e+06         1.11605e+08
    3.81              177079             301.134        -3.83294e+06         1.11492e+08
    3.83              176796             300.378        -3.82891e+06         1.11379e+08
    3.85              176512             299.622        -3.82485e+06         1.11265e+08
    3.87              176227             298.864        -3.82076e+06          1.1115e+08
    3.89              175940             298.106        -3.81665e+06         1.11035e+08
    3.91              175651             297.348         -3.8125e+06         1.10919e+08
    3.93              175361             296.589        -3.80832e+06         1.10802e+08
    3.95              175070             295.829        -3.80412e+06         1.10685e+08
    3.97              174778             295.068        -3.79988e+06         1.10567e+08
    3.99              174484             294.307        -3.79561e+06         1.10448e+08
    4.01              174189             293.546        -3.79132e+06         1.10329e+08
    4.03              173892             292.784          -3.787e+06         1.10209e+08
    4.05              173594             292.022        -3.78265e+06         1.10088e+08
    4.07              173295             291.259        -3.77827e+06         1.09967e+08
    4.09              172995             290.495        -3.77386e+06         1.09846e+08
    4.11              172693             289.732        -3.76942e+06         1.09723e+08
    4.13              172390             288.967        -3.76496e+06           1.096e+08
    4.15              172086             288.203        -3.76046e+06         1.09477e+08
    4.17              171780             287.438        -3.75595e+06         1.09353e+08
    4.19              171473             286.673         -3.7514e+06         1.09228e+08
    4.21              171165             285.908        -3.74682e+06         1.09103e+08
    4.23              170856             285.142        -3.74222e+06         1.08977e+08
    4.25              170546             284.376         -3.7376e+06         1.08851e+08
    4.27              170234              283.61        -3.73294e+06         1.08724e+08
    4.29              169921             282.844        -3.72826e+06         1.08597e+08
    4.31              169608             282.078        -3.72356e+06         1.08469e+08
    4.33              169293             281.311        -3.71883e+06          1.0834e+08
    4.35              168976             280.545        -3.71407e+06         1.08211e+08
    4.37              168659             279.778        -3.70929e+06         1.08082e+08
    4.39              168341             279.011        -3.70449e+06         1.07952e+08
    4.41              168022             278.244        -3.69966e+06         1.07821e+08
    4.43              167701             277.478         -3.6948e+06          1.0769e+08
    4.45              167380             276.711        -3.68992e+06         1.07559e+08
    4.47              167057             275.944        -3.68502e+06         1.07427e+08
    4.49              166734             275.178         -3.6801e+06         1.07294e+08
    4.51              166410             274.411        -3.67515e+06         1.07161e+08
    4.53              166084             273.645        -3.67018e+06         1.07028e+08
    4.55              165758             272.878        -3.66519e+06         1.06894e+08
    4.57              165431             272.112        -3.66018e+06          1.0676e+08
    4.59              165103             271.346        -3.65515e+06         1.06625e+08
    4.61              164774             270.581        -3.65009e+06          1.0649e+08
    4.63              164444             269.815        -3.64502e+06         1.06355e+08
    4.65              164113              269.05        -3.63992e+06         1.06219e+08
    4.67              163782             268.285         -3.6348e+06         1.06082e+08
    4.69              163449              267.52        -3.62967e+06         1.05946e+08
    4.71              163116             266.756        -3.62451e+06         1.05809e+08
    4.73              162783             265.992        -3.61934e+06         1.05671e+08
    4.75              162448             265.229        -3.61415e+06         1.05533e+08
    4.77              162113             264.465        -3.60894e+06         1.05395e+08
    4.79              161777             263.703        -3.60371e+06         1.05257e+08
    4.81              161440              262.94        -3.59846e+06         1.05118e+08
    4.83              161103             262.178         -3.5932e+06         1.04979e+08
    4.85              160765             261.417        -3.58792e+06         1.04839e+08
    4.87              160427             260.656        -3.58263e+06         1.04699e+08
    4.89              160088             259.896        -3.57731e+06         1.04559e+08
    4.91              159748             259.136        -3.57199e+06         1.04419e+08
    4.93              159408             258.377        -3.56664e+06         1.04278e+08
    4.95              159067             257.618        -3.56129e+06         1.04137e+08
    4.97              158726              256.86        -3.55591e+06         1.03996e+08
    4.99              158384             256.103        -3.55053e+06         1.03854e+08
    5.01              158042             255.346        -3.54513e+06         1.03712e+08
    5.03              157699              254.59        -3.53971e+06          1.0357e+08
    5.05              157356             253.835        -3.53428e+06         1.03428e+08
    5.07              157012              253.08        -3.52884e+06         1.03285e+08
    5.09              156669             252.327        -3.52339e+06         1.03143e+08
    5.11              156324             251.574        -3.51793e+06            1.03e+08
    5.13              155980             250.821        -3.51245e+06         1.02856e+08
    5.15              155635              250.07        -3.50696e+06         1.02713e+08
    5.17              155290              249.32        -3.50146e+06         1.02569e+08
    5.19              154944              248.57        -3.49595e+06         1.02426e+08
    5.21              154598             247.821        -3.49043e+06         1.02281e+08
    5.23              154252             247.073        -3.48489e+06         1.02137e+08
    5.25              153906             246.326        -3.47935e+06         1.01993e+08
    5.27              153559              245.58         -3.4738e+06         1.01848e+08
    5.29              153213             244.835        -3.46824e+06         1.01704e+08
    5.31              152866             244.091        -3.46267e+06         1.01559e+08
    5.33              152519             243.348        -3.45709e+06         1.01414e+08
    5.35              152171             242.605         -3.4515e+06         1.01268e+08
    5.37              151824             241.864         -3.4459e+06         1.01123e+08
    5.39              151476             241.124        -3.44029e+06         1.00977e+08
    5.41              151129             240.385        -3.43468e+06         1.00832e+08
    5.43              150781             239.648        -3.42906e+06         1.00686e+08
    5.45              150433             238.911        -3.42343e+06          1.0054e+08
    5.47              150085             238.175        -3.41779e+06         1.00394e+08
    5.49              149737             237.441        -3.41215e+06         1.00248e+08
    5.51              149389             236.707         -3.4065e+06         1.00102e+08
    5.53              149041             235.975        -3.40084e+06         9.99553e+07
    5.55              148693             235.244        -3.39517e+06         9.98088e+07
    5.57              148345             234.514         -3.3895e+06         9.96622e+07
    5.59              147997             233.786        -3.38382e+06         9.95154e+07
    5.61              147649             233.059        -3.37814e+06         9.93686e+07
    5.63              147301             232.333        -3.37245e+06         9.92217e+07
    5.65              146953             231.608        -3.36675e+06         9.90747e+07
    5.67              146605             230.884        -3.36105e+06         9.89275e+07
    5.69              146257             230.162        -3.35534e+06         9.87803e+07
    5.71              145909             229.441        -3.34963e+06          9.8633e+07
    5.73              145561             228.722        -3.34391e+06         9.84856e+07
    5.75              145213             228.003        -3.33819e+06         9.83381e+07
    5.77              144865             227.286        -3.33246e+06         9.81906e+07
    5.79              144518             226.571        -3.32672e+06         9.80429e+07
    5.81              144170             225.857        -3.32098e+06         9.78951e+07
    5.83              143823             225.144        -3.31523e+06         9.77473e+07
    5.85              143476             224.433        -3.30948e+06         9.75994e+07
    5.87              143128             223.723        -3.30373e+06         9.74513e+07
    5.89              142781             223.014        -3.29797e+06         9.73032e+07
    5.91              142434             222.307         -3.2922e+06          9.7155e+07
    5.93              142087             221.601        -3.28643e+06         9.70067e+07
    5.95              141740             220.897        -3.28065e+06         9.68583e+07
    5.97              141394             220.194        -3.27487e+06         9.67099e+07
    5.99              141047             219.493        -3.26908e+06         9.65613e+07
    6.01              140701             218.793        -3.26329e+06         9.64126e+07
    6.03              140355             218.094        -3.25749e+06         9.62639e+07
    6.05              140008             217.398        -3.25169e+06          9.6115e+07
    6.07              139662             216.702        -3.24588e+06         9.59661e+07
    6.09              139316             216.008        -3.24007e+06          9.5817e+07
    6.11              138971             215.316        -3.23425e+06         9.56679e+07
    6.13              138625             214.625        -3.22843e+06         9.55186e+07
    6.15              138279             213.935         -3.2226e+06         9.53692e+07
    6.17              137934             213.247        -3.21676e+06         9.52197e+07
    6.19              137589             212.561        -3.21092e+06         9.50701e+07
    6.21              137243             211.876        -3.20507e+06         9.49204e+07
    6.23              136898             211.193        -3.19922e+06         9.47705e+07
    6.25              136553             210.511        -3.19336e+06         9.46205e+07
    6.27              136208             209.831         -3.1875e+06         9.44704e+07
    6.29              135864             209.152        -3.18163e+06         9.43202e+07
    6.31              135519             208.475        -3.17575e+06         9.41698e+07
    6.33              135174             207.799        -3.16986e+06         9.40192e+07
    6.35              134830             207.125        -3.16397e+06         9.38686e+07
    6.37              134485             206.452        -3.15807e+06         9.37177e+07
    6.39              134141             205.781        -3.15217e+06         9.35667e+07
    6.41              133797             205.112        -3.14625e+06         9.34156e+07
    6.43              133452             204.444        -3.14033e+06         9.32643e+07
    6.45              133108             203.778        -3.13441e+06         9.31128e+07
    6.47              132764             203.113        -3.12847e+06         9.29611e+07
    6.49              132420              202.45        -3.12253e+06         9.28092e+07
    6.51              132076             201.788        -3.11657e+06         9.26572e+07
    6.53              131732             201.128        -3.11061e+06          9.2505e+07
    6.55              131388             200.469        -3.10465e+06         9.23525e+07
    6.57              131044             199.812        -3.09867e+06         9.21999e+07
    6.59              130700             199.156        -3.09268e+06          9.2047e+07
    6.61              130356             198.502        -3.08669e+06          9.1894e+07
    6.63              130012             197.849        -3.08068e+06         9.17407e+07
    6.65              129668             197.198        -3.07467e+06         9.15872e+07
    6.67              129324             196.549        -3.06864e+06         9.14334e+07
    6.69              128980             195.901        -3.06261e+06         9.12794e+07
    6.71              128636             195.254        -3.05657e+06         9.11252e+07
    6.73              128292             194.609        -3.05051e+06         9.09707e+07
    6.75              127948             193.966        -3.04445e+06         9.08159e+07
    6.77              127603             193.324        -3.03837e+06         9.06609e+07
    6.79              127259             192.683        -3.03228e+06         9.05056e+07
    6.81              126915             192.044        -3.02619e+06           9.035e+07
    6.83              126570             191.407        -3.02008e+06         9.01942e+07
    6.85              126226             190.771        -3.01396e+06          9.0038e+07
    6.87              125881             190.136        -3.00782e+06         8.98816e+07
    6.89              125536             189.503        -3.00168e+06         8.97248e+07
    6.91              125191             188.872        -2.99552e+06         8.95678e+07
    6.93              124846             188.242        -2.98935e+06         8.94104e+07
    6.95              124501             187.613        -2.98317e+06         8.92527e+07
    6.97              124156             186.986        -2.97697e+06         8.90946e+07
    6.99              123810              186.36        -2.97076e+06         8.89362e+07
    7.01              123465             185.735        -2.96454e+06         8.87775e+07
    7.03              123119             185.112        -2.95831e+06         8.86184e+07
    7.05              122773             184.491        -2.95206e+06          8.8459e+07
    7.07              122427             183.871        -2.94579e+06         8.82992e+07
    7.09              122081             183.252        -2.93951e+06          8.8139e+07
    7.11              121734             182.635        -2.93322e+06         8.79785e+07
    7.13              121387             182.019        -2.92692e+06         8.78175e+07
    7.15              121040             181.404        -2.92059e+06         8.76562e+07
    7.17              120693             180.791        -2.91426e+06         8.74945e+07
    7.19              120346             180.179        -2.90791e+06         8.73324e+07
    7.21              119998             179.569        -2.90154e+06         8.71698e+07
    7.23              119650              178.96        -2.89516e+06         8.70069e+07
    7.25              119302             178.352        -2.88876e+06         8.68435e+07
    7.27              118954             177.746        -2.88235e+06         8.66797e+07
    7.29              118605              177.14        -2.87592e+06         8.65155e+07
    7.31              118257             176.537        -2.86947e+06         8.63509e+07
    7.33              117908             175.934        -2.86301e+06         8.61858e+07
    7.35              117558             175.333        -2.85653e+06         8.60202e+07
    7.37              117209             174.734        -2.85004e+06         8.58542e+07
    7.39              116859             174.135        -2.84353e+06         8.56878e+07
    7.41              116509             173.538          -2.837e+06         8.55209e+07
    7.43              116158             172.942        -2.83045e+06         8.53535e+07
    7.45              115807             172.348        -2.82389e+06         8.51856e+07
    7.47              115456             171.754        -2.81731e+06         8.50173e+07
    7.49              115105             171.162        -2.81071e+06         8.48485e+07
    7.51              114754             170.572         -2.8041e+06         8.46792e+07
    7.53              114402             169.982        -2.79747e+06         8.45094e+07
    7.55              114049             169.394        -2.79082e+06         8.43391e+07
    7.57              113697             168.807        -2.78415e+06         8.41684e+07
    7.59              113344             168.221        -2.77747e+06         8.39971e+07
    7.61              112991             167.637        -2.77077e+06         8.38253e+07
    7.63              112638             167.054        -2.76405e+06          8.3653e+07
    7.65              112284             166.472        -2.75731e+06         8.34802e+07
    7.67              111930             165.891        -2.75055e+06         8.33069e+07
    7.69              111576             165.312        -2.74378e+06         8.31331e+07
    7.71              111221             164.733        -2.73699e+06         8.29587e+07
    7.73              110867             164.156        -2.73018e+06         8.27839e+07
    7.75              110511              163.58        -2.72335e+06         8.26085e+07
    7.77              110156             163.006        -2.71651e+06         8.24326e+07
    7.79              109800             162.432        -2.70965e+06         8.22561e+07
    7.81              109444              161.86        -2.70277e+06         8.20792e+07
    7.83              109088             161.289        -2.69587e+06         8.19017e+07
    7.85              108731             160.719        -2.68895e+06         8.17237e+07
    7.87              108375             160.151        -2.68202e+06         8.15451e+07
    7.89              108018             159.583        -2.67507e+06          8.1366e+07
    7.91              107660             159.017         -2.6681e+06         8.11864e+07
    7.93              107303             158.452        -2.66111e+06         8.10063e+07
    7.95              106945             157.888        -2.65411e+06         8.08256e+07
    7.97              106587             157.326        -2.64708e+06         8.06444e+07
    7.99              106228             156.764        -2.64005e+06         8.04627e+07
    8.01              105870             156.204        -2.63299e+06         8.02804e+07
    8.03              105511             155.645        -2.62592e+06         8.00976e+07
    8.05              105152             155.087        -2.61883e+06         7.99143e+07
    8.07              104792             154.531        -2.61172e+06         7.97305e+07
    8.09              104433             153.975         -2.6046e+06         7.95461e+07
    8.11              104073             153.421        -2.59746e+06         7.93612e+07
    8.13              103713             152.868         -2.5903e+06         7.91758e+07
    8.15              103353             152.316        -2.58313e+06         7.89899e+07
    8.17              102993             151.765        -2.57594e+06         7.88034e+07
    8.19              102633             151.216        -2.56874e+06         7.86165e+07
    8.21              102272             150.667        -2.56152e+06          7.8429e+07
    8.23              101912              150.12        -2.55428e+06         7.82411e+07
    8.25              101551             149.574        -2.54703e+06         7.80526e+07
    8.27              101190              149.03        -2.53977e+06         7.78637e+07
    8.29              100829             148.486        -2.53249e+06         7.76742e+07
    8.31              100468             147.944        -2.52519e+06         7.74843e+07
    8.33              100106             147.403        -2.51789e+06         7.72939e+07
    8.35             99745.2             146.863        -2.51056e+06          7.7103e+07
    8.37             99383.8             146.324        -2.50323e+06         7.69116e+07
    8.39             99022.4             145.787        -2.49588e+06         7.67198e+07
    8.41               98661             145.251        -2.48851e+06         7.65275e+07
    8.43             98299.5             144.716        -2.48114e+06         7.63348e+07
    8.45               97938             144.182        -2.47375e+06         7.61416e+07
    8.47             97576.6              143.65        -2.46635e+06          7.5948e+07
    8.49             97215.1             143.119        -2.45894e+06         7.57539e+07
    8.51             96853.7             142.589        -2.45152e+06         7.55594e+07
    8.53             96492.3              142.06        -2.44408e+06         7.53645e+07
    8.55               96131             141.532        -2.43664e+06         7.51692e+07
    8.57             95769.7             141.006        -2.42918e+06         7.49735e+07
    8.59             95408.6             140.481        -2.42171e+06         7.47773e+07
    8.61             95047.5             139.958        -2.41424e+06         7.45808e+07
    8.63             94686.6             139.435        -2.40675e+06          7.4384e+07
    8.65             94325.8             138.914        -2.39925e+06         7.41867e+07
    8.67             93965.2             138.394        -2.39175e+06         7.39891e+07
    8.69             93604.7             137.876        -2.38424e+06         7.37911e+07
    8.71             93244.4             137.359        -2.37672e+06         7.35928e+07
    8.73             92884.4             136.843        -2.36919e+06         7.33941e+07
    8.75             92524.5             136.328        -2.36166e+06         7.31951e+07
    8.77             92164.9             135.815        -2.35411e+06         7.29958e+07
    8.79             91805.5             135.303        -2.34657e+06         7.27963e+07
    8.81             91446.4             134.793        -2.33901e+06         7.25964e+07
    8.83             91087.6             134.284        -2.33145e+06         7.23962e+07
    8.85             90729.1             133.776        -2.32389e+06         7.21957e+07
    8.87             90370.9             133.269        -2.31632e+06          7.1995e+07
    8.89             90013.1             132.764        -2.30874e+06         7.17941e+07
    8.91             89655.6             132.261        -2.30117e+06         7.15929e+07
    8.93             89298.5             131.758        -2.29359e+06         7.13914e+07
    8.95             88941.8             131.257          -2.286e+06         7.11898e+07
    8.97             88585.5             130.758        -2.27842e+06         7.09879e+07
    8.99             88229.6              130.26        -2.27083e+06         7.07859e+07
    9.01             87874.1             129.763        -2.26324e+06         7.05836e+07
    9.03             87519.2             129.268        -2.25565e+06         7.03812e+07
    9.05             87164.7             128.774        -2.24806e+06         7.01787e+07
    9.07             86810.7             128.282        -2.24047e+06          6.9976e+07
    9.09             86457.3             127.791        -2.23288e+06         6.97731e+07
    9.11             86104.4             127.302        -2.22529e+06         6.95702e+07
    9.13               85752             126.814         -2.2177e+06         6.93671e+07
    9.15             85400.2             126.327        -2.21011e+06         6.91639e+07
    9.17               85049             125.842        -2.20253e+06         6.89607e+07
    9.19             84698.4             125.359        -2.19495e+06         6.87574e+07
    9.21             84348.5             124.877        -2.18737e+06          6.8554e+07
    9.23             83999.2             124.396         -2.1798e+06         6.83506e+07
    9.25             83650.6             123.917        -2.17223e+06         6.81472e+07
    9.27             83302.6              123.44        -2.16466e+06         6.79437e+07
    9.29             82955.4             122.964         -2.1571e+06         6.77403e+07
    9.31             82608.8              122.49        -2.14955e+06         6.75368e+07
    9.33             82263.1             122.017          -2.142e+06         6.73334e+07
    9.35               81918             121.546        -2.13446e+06           6.713e+07
    9.37             81573.8             121.076        -2.12693e+06         6.69267e+07
    9.39             81230.3             120.608         -2.1194e+06         6.67234e+07
    9.41             80887.7             120.141        -2.11188e+06         6.65202e+07
    9.43             80545.9             119.677        -2.10438e+06         6.63171e+07
    9.45             80204.9             119.213        -2.09688e+06         6.61141e+07
    9.47             79864.8             118.752        -2.08939e+06         6.59113e+07
    9.49             79525.5             118.292        -2.08191e+06         6.57085e+07
    9.51             79187.2             117.833        -2.07444e+06         6.55059e+07
    9.53             78849.8             117.376        -2.06698e+06         6.53035e+07
    9.55             78513.3             116.921        -2.05953e+06         6.51012e+07
    9.57             78177.8             116.468         -2.0521e+06         6.48992e+07
    9.59             77843.2             116.016        -2.04468e+06         6.46973e+07
    9.61             77509.6             115.566        -2.03727e+06         6.44957e+07
    9.63               77177             115.117        -2.02988e+06         6.42943e+07
    9.65             76845.5              114.67         -2.0225e+06         6.40931e+07
    9.67             76514.9             114.225        -2.01513e+06         6.38922e+07
    9.69             76185.4             113.781        -2.00778e+06         6.36915e+07
    9.71               75857              113.34        -2.00044e+06         6.34912e+07
    9.73             75529.6               112.9        -1.99312e+06         6.32911e+07
    9.75             75203.4             112.461        -1.98582e+06         6.30913e+07
    9.77             74878.2             112.025        -1.97853e+06         6.28919e+07
    9.79             74554.2              111.59        -1.97127e+06         6.26928e+07
    9.81             74231.3             111.156        -1.96401e+06         6.24941e+07
    9.83             73909.6             110.725        -1.95678e+06         6.22957e+07
    9.85               73589             110.295        -1.94957e+06         6.20977e+07
    9.87             73269.6             109.867        -1.94237e+06         6.19001e+07
    9.89             72951.4             109.441        -1.93519e+06         6.17029e+07
    9.91             72634.4             109.016        -1.92804e+06         6.15061e+07
    9.93             72318.6             108.593         -1.9209e+06         6.13097e+07
    9.95             72004.1             108.172        -1.91379e+06         6.11138e+07
    9.97             71690.8             107.753        -1.90669e+06         6.09183e+07
    9.99             71378.8             107.336        -1.89962e+06         6.07233e+07
   10.01               71068              106.92        -1.89257e+06         6.05287e+07
   10.03             70758.6             106.506        -1.88554e+06         6.03347e+07
   10.05             70450.4             106.094        -1.87854e+06         6.01411e+07
   10.07             70143.5             105.684        -1.87155e+06         5.99481e+07
   10.09               69838             105.275         -1.8646e+06         5.97556e+07
   10.11             69533.8             104.868        -1.85766e+06         5.95636e+07
   10.13             69230.9             104.463        -1.85075e+06         5.93722e+07
   10.15             68929.4              104.06        -1.84386e+06         5.91813e+07
   10.17             68629.3             103.659          -1.837e+06          5.8991e+07
   10.19             68330.5             103.259        -1.83017e+06         5.88013e+07
   10.21             68033.1             102.862        -1.82336e+06         5.86121e+07
   10.23             67737.2             102.466        -1.81657e+06         5.84236e+07
   10.25             67442.6             102.072        -1.80981e+06         5.82357e+07
   10.27             67149.4             101.679        -1.80308e+06         5.80484e+07
   10.29             66857.7             101.289        -1.79638e+06         5.78617e+07
   10.31             66567.4               100.9         -1.7897e+06         5.76757e+07
   10.33             66278.5             100.513        -1.78305e+06         5.74903e+07
   10.35             65991.1             100.128        -1.77643e+06         5.73056e+07
   10.37             65705.1              99.745        -1.76984e+06         5.71215e+07
   10.39             65420.6             99.3637        -1.76327e+06         5.69382e+07
   10.41             65137.6             98.9841        -1.75674e+06         5.67555e+07
   10.43             64856.1             98.6064        -1.75023e+06         5.65735e+07
   10.45               64576             98.2305        -1.74375e+06         5.63923e+07
   10.47             64297.5             97.8564         -1.7373e+06         5.62117e+07
   10.49             64020.4             97.4842        -1.73088e+06         5.60319e+07
   10.51             63744.9             97.1137         -1.7245e+06         5.58528e+07
   10.53             63470.8             96.7451        -1.71814e+06         5.56744e+07
   10.55             63198.3             96.3784        -1.71181e+06         5.54968e+07
   10.57             62927.3             96.0135        -1.70551e+06           5.532e+07
   10.59             62657.9             95.6503        -1.69925e+06         5.51439e+07
   10.61               62390             95.2891        -1.69301e+06         5.49685e+07
   10.63             62123.6             94.9296        -1.68681e+06          5.4794e+07
   10.65             61858.7              94.572        -1.68064e+06         5.46202e+07
   10.67             61595.4             94.2162         -1.6745e+06         5.44473e+07
   10.69             61333.7             93.8622        -1.66839e+06         5.42751e+07
   10.71             61073.5               93.51        -1.66232e+06         5.41038e+07
   10.73             60814.9             93.1597        -1.65627e+06         5.39332e+07
   10.75             60557.9             92.8112        -1.65026e+06         5.37635e+07
   10.77             60302.4             92.4645        -1.64428e+06         5.35946e+07
   10.79             60048.5             92.1196        -1.63834e+06         5.34265e+07
   10.81             59796.1             91.7765        -1.63243e+06         5.32592e+07
   10.83             59545.3             91.4353        -1.62655e+06         5.30928e+07
   10.85             59296.1             91.0958         -1.6207e+06         5.29273e+07
   10.87             59048.5             90.7582        -1.61489e+06         5.27626e+07
   10.89             58802.5             90.4223        -1.60911e+06         5.25987e+07
   10.91               58558             90.0883        -1.60337e+06         5.24357e+07
   10.93             58315.2             89.7561        -1.59765e+06         5.22736e+07
   10.95             58073.9             89.4256        -1.59198e+06         5.21123e+07
   10.97             57834.2              89.097        -1.58633e+06         5.19519e+07
   10.99             57596.1             88.7701        -1.58073e+06         5.17924e+07
   11.01             57359.6             88.4451        -1.57515e+06         5.16338e+07
   11.03             57124.7             88.1218        -1.56961e+06         5.14761e+07
   11.05             56891.3             87.8003         -1.5641e+06         5.13192e+07
   11.07             56659.6             87.4806        -1.55863e+06         5.11632e+07
   11.09             56429.4             87.1627        -1.55319e+06         5.10082e+07
   11.11             56200.8             86.8465        -1.54779e+06          5.0854e+07
   11.13             55973.8             86.5321        -1.54242e+06         5.07007e+07
   11.15             55748.4             86.2195        -1.53709e+06         5.05483e+07
   11.17             55524.6             85.9087        -1.53179e+06         5.03968e+07
   11.19             55302.3             85.5996        -1.52653e+06         5.02463e+07
   11.21             55081.7             85.2922         -1.5213e+06         5.00966e+07
   11.23             54862.6             84.9866         -1.5161e+06         4.99479e+07
   11.25             54645.1             84.6828        -1.51094e+06         4.98001e+07
   11.27             54429.2             84.3807        -1.50582e+06         4.96531e+07
   11.29             54214.8             84.0803        -1.50073e+06         4.95071e+07
   11.31               54002             83.7817        -1.49568e+06         4.93621e+07
   11.33             53790.8             83.4848        -1.49066e+06         4.92179e+07
   11.35             53581.1             83.1896        -1.48567e+06         4.90746e+07
   11.37             53373.1             82.8962        -1.48072e+06         4.89323e+07
   11.39             53166.5             82.6045         -1.4758e+06         4.87909e+07
   11.41             52961.6             82.3145        -1.47092e+06         4.86504e+07
   11.43             52758.2             82.0262        -1.46608e+06         4.85109e+07
   11.45             52556.3             81.7396        -1.46127e+06         4.83723e+07
   11.47               52356             81.4547        -1.45649e+06         4.82345e+07
   11.49             52157.2             81.1715        -1.45175e+06         4.80978e+07
   11.51               51960               80.89        -1.44704e+06         4.79619e+07
   11.53             51764.3             80.6101        -1.44237e+06         4.78269e+07
   11.55             51570.1              80.332        -1.43773e+06         4.76929e+07
   11.57             51377.5             80.0555        -1.43313e+06         4.75598e+07
   11.59             51186.3             79.7808        -1.42856e+06         4.74276e+07
   11.61             50996.7             79.5076        -1.42403e+06         4.72964e+07
   11.63             50808.6             79.2362        -1.41953e+06         4.71661e+07
   11.65             50622.1             78.9664        -1.41506e+06         4.70366e+07
   11.67               50437             78.6982        -1.41063e+06         4.69081e+07
   11.69             50253.4             78.4317        -1.40624e+06         4.67805e+07
   11.71             50071.3             78.1668        -1.40187e+06         4.66539e+07
   11.73             49890.7             77.9036        -1.39754e+06         4.65281e+07
   11.75             49711.6              77.642        -1.39325e+06         4.64033e+07
   11.77               49534             77.3821        -1.38899e+06         4.62793e+07
   11.79             49357.8             77.1237        -1.38476e+06         4.61563e+07
   11.81             49183.1              76.867        -1.38057e+06         4.60342e+07
   11.83             49009.9             76.6119        -1.37641e+06          4.5913e+07
   11.85             48838.1             76.3583        -1.37228e+06         4.57927e+07
   11.87             48667.8             76.1064        -1.36819e+06         4.56732e+07
   11.89             48498.9             75.8561        -1.36413e+06         4.55547e+07
   11.91             48331.4             75.6074         -1.3601e+06         4.54371e+07
   11.93             48165.4             75.3602         -1.3561e+06         4.53204e+07
   11.95             48000.8             75.1146        -1.35214e+06         4.52045e+07
   11.97             47837.6             74.8706        -1.34821e+06         4.50896e+07
   11.99             47675.8             74.6282        -1.34432e+06         4.49755e+07
   12.01             47515.4             74.3873        -1.34045e+06         4.48623e+07
   12.03             47356.4              74.148        -1.33662e+06           4.475e+07
   12.05             47198.8             73.9103        -1.33282e+06         4.46386e+07
   12.07             47042.6              73.674        -1.32906e+06          4.4528e+07
   12.09             46887.8             73.4394        -1.32532e+06         4.44183e+07
   12.11             46734.3             73.2062        -1.32162e+06         4.43095e+07
   12.13             46582.2             72.9746        -1.31795e+06         4.42015e+07
   12.15             46431.5             72.7445        -1.31431e+06         4.40944e+07
   12.17             46282.1             72.5159         -1.3107e+06         4.39882e+07
   12.19             46134.1             72.2888        -1.30712e+06         4.38828e+07
   12.21             45987.3             72.0633        -1.30357e+06         4.37782e+07
   12.23               45842             71.8392        -1.30006e+06         4.36745e+07
   12.25             45697.9             71.6166        -1.29657e+06         4.35716e+07
   12.27             45555.1             71.3955        -1.29312e+06         4.34696e+07
   12.29             45413.7             71.1759        -1.28969e+06         4.33684e+07
   12.31             45273.5             70.9578         -1.2863e+06          4.3268e+07
   12.33             45134.6             70.7411        -1.28294e+06         4.31684e+07
   12.35               44997             70.5259         -1.2796e+06         4.30697e+07
   12.37             44860.7             70.3122         -1.2763e+06         4.29718e+07
   12.39             44725.7             70.0999        -1.27302e+06         4.28747e+07
   12.41             44591.9             69.8891        -1.26978e+06         4.27783e+07
   12.43             44459.4             69.6797        -1.26656e+06         4.26828e+07
   12.45             44328.1             69.4717        -1.26337e+06         4.25881e+07
   12.47               44198             69.2652        -1.26022e+06         4.24942e+07
   12.49             44069.2               69.06        -1.25709e+06          4.2401e+07
   12.51             43941.6             68.8563        -1.25399e+06         4.23087e+07
   12.53             43815.2              68.654        -1.25091e+06         4.22171e+07
   12.55               43690             68.4531        -1.24787e+06         4.21263e+07
   12.57               43566             68.2537        -1.24485e+06         4.20363e+07
   12.59             43443.2             68.0556        -1.24186e+06          4.1947e+07
   12.61             43321.5             67.8588         -1.2389e+06         4.18585e+07
   12.63             43201.1             67.6635        -1.23597e+06         4.17707e+07
   12.65             43081.8             67.4696        -1.23306e+06         4.16837e+07
   12.67             42963.6              67.277        -1.23019e+06         4.15974e+07
   12.69             42846.7             67.0857        -1.22733e+06         4.15119e+07
   12.71             42730.8             66.8959        -1.22451e+06         4.14271e+07
   12.73             42616.1             66.7073        -1.22171e+06          4.1343e+07
   12.75             42502.5             66.5201        -1.21893e+06         4.12596e+07
   12.77               42390             66.3343        -1.21619e+06          4.1177e+07
   12.79             42278.6             66.1498        -1.21347e+06          4.1095e+07
   12.81             42168.4             65.9666        -1.21077e+06         4.10138e+07
   12.83             42059.2             65.7847         -1.2081e+06         4.09333e+07
   12.85             41951.1             65.6042        -1.20546e+06         4.08535e+07
   12.87             41844.1             65.4249        -1.20284e+06         4.07743e+07
   12.89             41738.1              65.247        -1.20024e+06         4.06959e+07
   12.91             41633.2             65.0703        -1.19767e+06         4.06181e+07
   12.93             41529.4             64.8949        -1.19513e+06          4.0541e+07
   12.95             41426.6             64.7209        -1.19261e+06         4.04646e+07
   12.97             41324.8              64.548        -1.19011e+06         4.03888e+07
   12.99               41224             64.3765        -1.18764e+06         4.03137e+07
   13.01             41124.3             64.2062        -1.18519e+06         4.02392e+07
   13.03             41025.6             64.0372        -1.18276e+06         4.01654e+07
   13.05             40927.9             63.8694        -1.18036e+06         4.00922e+07
   13.07             40831.2             63.7029        -1.17798e+06         4.00197e+07
   13.09             40735.4             63.5376        -1.17563e+06         3.99478e+07
   13.11             40640.7             63.3736        -1.17329e+06         3.98765e+07
   13.13             40546.9             63.2108        -1.17098e+06         3.98058e+07
   13.15             40454.1             63.0492         -1.1687e+06         3.97358e+07
   13.17             40362.2             62.8888        -1.16643e+06         3.96663e+07
   13.19             40271.3             62.7296        -1.16419e+06         3.95975e+07
   13.21             40181.3             62.5716        -1.16196e+06         3.95293e+07
   13.23             40092.3             62.4148        -1.15976e+06         3.94616e+07
   13.25             40004.2             62.2592        -1.15758e+06         3.93945e+07
   13.27             39916.9             62.1048        -1.15543e+06         3.93281e+07
   13.29             39830.6             61.9516        -1.15329e+06         3.92621e+07
   13.31             39745.2             61.7995        -1.15117e+06         3.91968e+07
   13.33             39660.7             61.6487        -1.14908e+06          3.9132e+07
   13.35             39577.1             61.4989          -1.147e+06         3.90678e+07
   13.37             39494.3             61.3504        -1.14495e+06         3.90041e+07
   13.39             39412.5             61.2029        -1.14291e+06          3.8941e+07
   13.41             39331.4             61.0566         -1.1409e+06         3.88785e+07
   13.43             39251.3             60.9115         -1.1389e+06         3.88164e+07
   13.45             39171.9             60.7675        -1.13693e+06         3.87549e+07
   13.47             39093.4             60.6246        -1.13497e+06          3.8694e+07
   13.49             39015.8             60.4828        -1.13303e+06         3.86335e+07
   13.51               38939             60.3421        -1.13112e+06         3.85736e+07
   13.53             38862.9             60.2026        -1.12922e+06         3.85141e+07
   13.55             38787.7             60.0641        -1.12734e+06         3.84552e+07
   13.57             38713.3             59.9268        -1.12547e+06         3.83968e+07
   13.59             38639.7             59.7905        -1.12363e+06         3.83389e+07
   13.61             38566.9             59.6553         -1.1218e+06         3.82814e+07
   13.63             38494.8             59.5212        -1.11999e+06         3.82245e+07
   13.65             38423.5             59.3881         -1.1182e+06          3.8168e+07
   13.67               38353             59.2562        -1.11643e+06          3.8112e+07
   13.69             38283.2             59.1253        -1.11467e+06         3.80565e+07
   13.71             38214.2             58.9954        -1.11294e+06         3.80015e+07
   13.73               38146             58.8666        -1.11121e+06         3.79469e+07
   13.75             38078.4             58.7388        -1.10951e+06         3.78927e+07
   13.77             38011.6             58.6121        -1.10782e+06         3.78391e+07
   13.79             37945.5             58.4864        -1.10615e+06         3.77858e+07
   13.81             37880.2             58.3617        -1.10449e+06          3.7733e+07
   13.83             37815.5             58.2381        -1.10285e+06         3.76806e+07
   13.85             37751.5             58.1154        -1.10123e+06         3.76287e+07
   13.87             37688.3             57.9938        -1.09962e+06         3.75772e+07
   13.89             37625.7             57.8732        -1.09803e+06         3.75261e+07
   13.91             37563.8             57.7535        -1.09645e+06         3.74755e+07
   13.93             37502.6             57.6349        -1.09489e+06         3.74252e+07
   13.95               37442             57.5172        -1.09334e+06         3.73754e+07
   13.97             37382.1             57.4006        -1.09181e+06         3.73259e+07
   13.99             37322.9             57.2849        -1.09029e+06         3.72769e+07
   14.01             37264.3             57.1702        -1.08879e+06         3.72283e+07
   14.03             37206.3             57.0564         -1.0873e+06           3.718e+07
   14.05               37149             56.9436        -1.08583e+06         3.71321e+07
   14.07             37092.3             56.8318        -1.08437e+06         3.70846e+07
   14.09             37036.2             56.7209        -1.08292e+06         3.70375e+07
   14.11             36980.7             56.6109        -1.08149e+06         3.69908e+07
   14.13             36925.9             56.5019        -1.08007e+06         3.69445e+07
   14.15             36871.6             56.3938        -1.07867e+06         3.68985e+07
   14.17               36818             56.2867        -1.07728e+06         3.68528e+07
   14.19             36764.9             56.1805         -1.0759e+06         3.68075e+07
   14.21             36712.5             56.0752        -1.07453e+06         3.67626e+07
   14.23             36660.6             55.9708        -1.07318e+06          3.6718e+07
   14.25             36609.2             55.8673        -1.07184e+06         3.66738e+07
   14.27             36558.5             55.7647        -1.07052e+06         3.66299e+07
   14.29             36508.3              55.663         -1.0692e+06         3.65864e+07
   14.31             36458.6             55.5622         -1.0679e+06         3.65432e+07
   14.33             36409.5             55.4623        -1.06661e+06         3.65003e+07
   14.35               36361             55.3633        -1.06533e+06         3.64577e+07
   14.37               36313             55.2652        -1.06407e+06         3.64155e+07
   14.39             36265.5             55.1679        -1.06281e+06         3.63736e+07
   14.41             36218.5             55.0715        -1.06157e+06          3.6332e+07
   14.43             36172.1              54.976        -1.06034e+06         3.62907e+07
   14.45             36126.2             54.8813        -1.05912e+06         3.62497e+07
   14.47             36080.8             54.7874        -1.05792e+06          3.6209e+07
   14.49             36035.8             54.6945        -1.05672e+06         3.61687e+07
   14.51             35991.4             54.6023        -1.05553e+06         3.61286e+07
   14.53             35947.5              54.511        -1.05436e+06         3.60888e+07
   14.55             35904.1             54.4206        -1.05319e+06         3.60493e+07
   14.57             35861.1             54.3309        -1.05204e+06         3.60101e+07
   14.59             35818.7             54.2421         -1.0509e+06         3.59712e+07
   14.61             35776.7             54.1541        -1.04977e+06         3.59326e+07
   14.63             35735.2             54.0669        -1.04864e+06         3.58942e+07
   14.65             35694.1             53.9806        -1.04753e+06         3.58562e+07
   14.67             35653.5              53.895        -1.04643e+06         3.58184e+07
   14.69             35613.3             53.8102        -1.04534e+06         3.57808e+07
   14.71             35573.6             53.7263        -1.04426e+06         3.57436e+07
   14.73             35534.4             53.6431        -1.04318e+06         3.57066e+07
   14.75             35495.5             53.5607        -1.04212e+06         3.56698e+07
   14.77             35457.1             53.4791        -1.04107e+06         3.56333e+07
   14.79             35419.2             53.3982        -1.04002e+06         3.55971e+07
   14.81             35381.6             53.3182        -1.03899e+06         3.55611e+07
   14.83             35344.5             53.2389        -1.03796e+06         3.55254e+07
   14.85             35307.8             53.1604        -1.03695e+06         3.54899e+07
   14.87             35271.5             53.0826        -1.03594e+06         3.54547e+07
   14.89             35235.6             53.0056        -1.03494e+06         3.54197e+07
   14.91             35200.1             52.9293        -1.03395e+06         3.53849e+07
   14.93               35165             52.8538        -1.03297e+06         3.53504e+07
   14.95             35130.3              52.779          -1.032e+06         3.53161e+07
   14.97               35096              52.705        -1.03103e+06         3.52821e+07
   14.99             35062.1             52.6317        -1.03008e+06         3.52482e+07
   15.01             35028.5             52.5591        -1.02913e+06         3.52146e+07
   15.03             34995.3             52.4873        -1.02819e+06         3.51812e+07
   15.05             34962.5             52.4161        -1.02726e+06         3.51481e+07
   15.07             34930.1             52.3457        -1.02633e+06         3.51151e+07
   15.09               34898              52.276        -1.02542e+06         3.50824e+07
   15.11             34866.2              52.207        -1.02451e+06         3.50499e+07
   15.13             34834.9             52.1387        -1.02361e+06         3.50175e+07
   15.15             34803.9              52.071        -1.02272e+06         3.49854e+07
   15.17             34773.2             52.0041        -1.02183e+06         3.49535e+07
   15.19             34742.8             51.9379        -1.02095e+06         3.49218e+07
   15.21             34712.8             51.8723        -1.02008e+06         3.48903e+07
   15.23             34683.2             51.8075        -1.01922e+06          3.4859e+07
   15.25             34653.9             51.7433        -1.01836e+06         3.48279e+07
   15.27             34624.9             51.6797        -1.01751e+06          3.4797e+07
   15.29             34596.2             51.6169        -1.01667e+06         3.47663e+07
   15.31             34567.8             51.5547        -1.01583e+06         3.47358e+07
   15.33             34539.8             51.4931          -1.015e+06         3.47054e+07
   15.35               34512             51.4322        -1.01418e+06         3.46753e+07
   15.37             34484.6              51.372        -1.01336e+06         3.46453e+07
   15.39             34457.5             51.3124        -1.01256e+06         3.46155e+07
   15.41             34430.7             51.2534        -1.01175e+06         3.45859e+07
   15.43             34404.2             51.1951        -1.01096e+06         3.45565e+07
   15.45               34378             51.1374        -1.01017e+06         3.45272e+07
   15.47               34352             51.0803        -1.00938e+06         3.44981e+07
   15.49             34326.4             51.0238         -1.0086e+06         3.44692e+07
   15.51               34301              50.968        -1.00783e+06         3.44404e+07
   15.53               34276             50.9127        -1.00707e+06         3.44118e+07
   15.55             34251.2             50.8581        -1.00631e+06         3.43834e+07
   15.57             34226.6             50.8041        -1.00555e+06         3.43551e+07
   15.59             34202.4             50.7506         -1.0048e+06          3.4327e+07
   15.61             34178.4             50.6978        -1.00406e+06          3.4299e+07
   15.63             34154.7             50.6455        -1.00332e+06         3.42712e+07
   15.65             34131.3             50.5939        -1.00259e+06         3.42436e+07
   15.67             34108.1             50.5428        -1.00187e+06         3.42161e+07
   15.69             34085.1             50.4922        -1.00114e+06         3.41887e+07
   15.71             34062.5             50.4423        -1.00043e+06         3.41615e+07
   15.73               34040             50.3929             -999718         3.41345e+07
   15.75             34017.9             50.3441             -999013         3.41076e+07
   15.77             33995.9             50.2958             -998313         3.40808e+07
   15.79             33974.2             50.2481             -997618         3.40541e+07
   15.81             33952.8             50.2009             -996928         3.40276e+07
   15.83             33931.6             50.1542             -996243         3.40013e+07
   15.85             33910.6             50.1081             -995563          3.3975e+07
   15.87             33889.9             50.0626             -994887         3.39489e+07
   15.89             33869.4             50.0175             -994217          3.3923e+07
   15.91             33849.1              49.973             -993550         3.38971e+07
   15.93               33829             49.9289             -992889         3.38714e+07
   15.95             33809.2             49.8854             -992232         3.38458e+07
   15.97             33789.5             49.8424             -991579         3.38203e+07
   15.99             33770.1             49.7999             -990931          3.3795e+07
   16.01             33750.9             49.7579             -990287         3.37697e+07
   16.03               33732             49.7164             -989648         3.37446e+07
   16.05             33713.2             49.6754             -989012         3.37196e+07
   16.07             33694.6             49.6348             -988381         3.36947e+07
   16.09             33676.3             49.5947             -987754         3.36699e+07
   16.11             33658.1             49.5551             -987131         3.36453e+07
   16.13             33640.1              49.516             -986512         3.36207e+07
   16.15             33622.4             49.4773             -985897         3.35962e+07
   16.17             33604.8              49.439             -985286         3.35718e+07
   16.19             33587.4             49.4012             -984678         3.35476e+07
   16.21             33570.2             49.3639             -984074         3.35234e+07
   16.23             33553.2              49.327             -983474         3.34994e+07
   16.25             33536.4             49.2905             -982878         3.34754e+07
   16.27             33519.8             49.2544             -982285         3.34515e+07
   16.29             33503.4             49.2188             -981696         3.34277e+07
   16.31             33487.1             49.1836             -981110          3.3404e+07
   16.33               33471             49.1488             -980528         3.33804e+07
   16.35             33455.1             49.1143             -979949         3.33569e+07
   16.37             33439.3             49.0803             -979373         3.33335e+07
   16.39             33423.8             49.0467             -978801         3.33101e+07
   16.41             33408.4             49.0135             -978232         3.32868e+07
   16.43             33393.1             48.9806             -977666         3.32636e+07
   16.45             33378.1             48.9481             -977103         3.32405e+07
   16.47             33363.2              48.916             -976544         3.32175e+07
   16.49             33348.4             48.8842             -975987         3.31945e+07
   16.51             33333.8             48.8528             -975433         3.31716e+07
   16.53             33319.4             48.8218             -974882         3.31488e+07
   16.55             33305.1             48.7911             -974334          3.3126e+07
   16.57               33291             48.7607             -973789         3.31034e+07
   16.59             33277.1             48.7307             -973247         3.30807e+07
   16.61             33263.2              48.701             -972708         3.30582e+07
   16.63             33249.6             48.6716             -972171         3.30357e+07
   16.65               33236             48.6425             -971637         3.30133e+07
   16.67             33222.7             48.6138             -971105         3.29909e+07
   16.69             33209.4             48.5853             -970576         3.29686e+07
   16.71             33196.3             48.5571             -970050         3.29463e+07
   16.73             33183.4             48.5293             -969525         3.29241e+07
   16.75             33170.6             48.5017             -969004          3.2902e+07
   16.77             33157.9             48.4743             -968485         3.28799e+07
   16.79             33145.3             48.4473             -967968         3.28578e+07
   16.81             33132.9             48.4205             -967453         3.28358e+07
   16.83             33120.6              48.394             -966941         3.28139e+07
   16.85             33108.5             48.3677             -966431          3.2792e+07
   16.87             33096.4             48.3417             -965923         3.27701e+07
   16.89             33084.5             48.3159             -965417         3.27483e+07
   16.91             33072.7             48.2903             -964914         3.27265e+07
   16.93             33061.1              48.265             -964412         3.27048e+07
   16.95             33049.5             48.2398             -963913         3.26831e+07
   16.97             33038.1             48.2149             -963415         3.26614e+07
   16.99             33026.8             48.1902             -962920         3.26398e+07
   17.01             33015.6             48.1657             -962426         3.26182e+07
   17.03             33004.6             48.1414             -961934         3.25966e+07
   17.05             32993.6             48.1172             -961444         3.25751e+07
   17.07             32982.8             48.0933             -960956         3.25536e+07
   17.09               32972             48.0695             -960470         3.25321e+07
   17.11             32961.4             48.0459             -959985         3.25106e+07
   17.13             32950.9             48.0224             -959502         3.24892e+07
   17.15             32940.4             47.9991             -959021         3.24678e+07
   17.17             32930.1             47.9759             -958541         3.24464e+07
   17.19             32919.9             47.9529             -958063         3.24251e+07
   17.21             32909.8               47.93             -957587         3.24038e+07
   17.23             32899.8             47.9072             -957112         3.23824e+07
   17.25             32889.9             47.8845             -956639         3.23611e+07
   17.27               32880             47.8619             -956167         3.23399e+07
   17.29             32870.3             47.8395             -955696         3.23186e+07
   17.31             32860.7             47.8171             -955227         3.22973e+07
   17.33             32851.1             47.7949             -954759         3.22761e+07
   17.35             32841.7             47.7727             -954293         3.22549e+07
   17.37             32832.3             47.7506             -953828         3.22337e+07
   17.39               32823             47.7285             -953364         3.22125e+07
   17.41             32813.8             47.7065             -952902         3.21913e+07
   17.43             32804.7             47.6846             -952440         3.21701e+07
   17.45             32795.7             47.6627             -951980         3.21489e+07
   17.47             32786.8             47.6409             -951521         3.21277e+07
   17.49             32777.9             47.6191             -951064         3.21066e+07
   17.51             32769.1             47.5973             -950607         3.20854e+07
   17.53             32760.4             47.5755             -950151         3.20642e+07
   17.55             32751.8             47.5538             -949697         3.20431e+07
   17.57             32743.2              47.532             -949243         3.20219e+07
   17.59             32734.7             47.5103             -948791         3.20007e+07
   17.61             32726.3             47.4886             -948340         3.19796e+07
   17.63               32718             47.4668             -947889         3.19584e+07
   17.65             32709.7              47.445             -947439         3.19372e+07
   17.67             32701.5             47.4232             -946991         3.19161e+07
   17.69             32693.4             47.4014             -946543         3.18949e+07
   17.71             32685.3             47.3795             -946096         3.18737e+07
   17.73             32677.3             47.3576             -945650         3.18525e+07
   17.75             32669.4             47.3357             -945205         3.18313e+07
   17.77             32661.5             47.3136             -944760         3.18101e+07
   17.79             32653.7             47.2916             -944317         3.17889e+07
   17.81             32645.9             47.2694             -943874         3.17677e+07
   17.83             32638.2             47.2472             -943431         3.17464e+07
   17.85             32630.6             47.2249             -942990         3.17252e+07
   17.87               32623             47.2024             -942549         3.17039e+07
   17.89             32615.4             47.1799             -942109         3.16826e+07
   17.91             32607.9             47.1573             -941669         3.16614e+07
   17.93             32600.5             47.1346             -941230         3.16401e+07
   17.95             32593.1             47.1118             -940792         3.16187e+07
   17.97             32585.8             47.0889             -940354         3.15974e+07
   17.99             32578.5             47.0658             -939917         3.15761e+07
   18.01             32571.3             47.0426             -939480         3.15547e+07
   18.03             32564.1             47.0193             -939044         3.15333e+07
   18.05             32556.9             46.9959             -938608         3.15119e+07
   18.07             32549.8             46.9723             -938173         3.14905e+07
   18.09             32542.7             46.9485             -937738          3.1469e+07
   18.11             32535.7             46.9246             -937304         3.14476e+07
   18.13             32528.7             46.9005             -936870         3.14261e+07
   18.15             32521.8             46.8763             -936436         3.14046e+07
   18.17             32514.9             46.8519             -936003         3.13831e+07
   18.19               32508             46.8273             -935570         3.13615e+07
   18.21             32501.1             46.8025             -935138         3.13399e+07
   18.23             32494.3             46.7776             -934706         3.13184e+07
   18.25             32487.6             46.7524             -934274         3.12967e+07
   18.27             32480.8             46.7271             -933842         3.12751e+07
   18.29             32474.1             46.7016             -933411         3.12534e+07
   18.31             32467.4             46.6758             -932980         3.12317e+07
   18.33             32460.8             46.6499             -932549           3.121e+07
   18.35             32454.1             46.6237             -932119         3.11883e+07
   18.37             32447.5             46.5974             -931688         3.11665e+07
   18.39             32440.9             46.5708             -931258         3.11447e+07
   18.41             32434.4              46.544             -930828         3.11229e+07
   18.43             32427.9              46.517             -930398          3.1101e+07
   18.45             32421.3             46.4897             -929968         3.10791e+07
   18.47             32414.9             46.4622             -929538         3.10572e+07
   18.49             32408.4             46.4345             -929109         3.10353e+07
   18.51             32401.9             46.4066             -928679         3.10133e+07
   18.53             32395.5             46.3784             -928250         3.09913e+07
   18.55             32389.1             46.3499             -927820         3.09693e+07
   18.57             32382.7             46.3213             -927391         3.09472e+07
   18.59             32376.3             46.2923             -926962         3.09251e+07
   18.61             32369.9             46.2632             -926532          3.0903e+07
   18.63             32363.6             46.2337             -926103         3.08808e+07
   18.65             32357.2              46.204             -925674         3.08586e+07
   18.67             32350.9             46.1741             -925244         3.08364e+07
   18.69             32344.6             46.1439             -924815         3.08142e+07
   18.71             32338.3             46.1134             -924385         3.07919e+07
   18.73               32332             46.0827             -923956         3.07696e+07
   18.75             32325.7             46.0517             -923526         3.07472e+07
   18.77             32319.4             46.0205             -923096         3.07248e+07
   18.79             32313.1             45.9889             -922666         3.07024e+07
   18.81             32306.8             45.9572             -922236         3.06799e+07
   18.83             32300.5             45.9251             -921806         3.06575e+07
   18.85             32294.3             45.8928             -921375         3.06349e+07
   18.87               32288             45.8602             -920944         3.06124e+07
   18.89             32281.7             45.8273             -920514         3.05898e+07
   18.91             32275.5             45.7942             -920082         3.05671e+07
   18.93             32269.2             45.7608             -919651         3.05445e+07
   18.95               32263             45.7272             -919220         3.05218e+07
   18.97             32256.7             45.6932             -918788          3.0499e+07
   18.99             32250.4              45.659             -918356         3.04763e+07
   19.01             32244.2             45.6245             -917923         3.04535e+07
   19.03             32237.9             45.5898             -917491         3.04306e+07
   19.05             32231.7             45.5548             -917058         3.04077e+07
   19.07             32225.4             45.5195             -916625         3.03848e+07
   19.09             32219.1              45.484             -916191         3.03619e+07
   19.11             32212.8             45.4482             -915757         3.03389e+07
   19.13             32206.6             45.4121             -915323         3.03158e+07
   19.15             32200.3             45.3757             -914888         3.02928e+07
   19.17               32194             45.3391             -914453         3.02697e+07
   19.19             32187.7             45.3023             -914018         3.02465e+07
   19.21             32181.4             45.2652             -913582         3.02233e+07
   19.23               32175             45.2278             -913146         3.02001e+07
   19.25             32168.7             45.1902             -912709         3.01769e+07
   19.27             32162.4             45.1523             -912272         3.01536e+07
   19.29               32156             45.1141             -911834         3.01302e+07
   19.31             32149.7             45.0757             -911396         3.01069e+07
   19.33             32143.3             45.0371             -910958         3.00835e+07
   19.35               32137             44.9982             -910519           3.006e+07
   19.37             32130.6             44.9591             -910079         3.00366e+07
   19.39             32124.2             44.9198             -909640          3.0013e+07
   19.41             32117.8             44.8802             -909199         2.99895e+07
   19.43             32111.4             44.8403             -908758         2.99659e+07
   19.45             32104.9             44.8003             -908317         2.99422e+07
   19.47             32098.5               44.76             -907875         2.99186e+07
   19.49               32092             44.7195             -907432         2.98949e+07
   19.51             32085.6             44.6788             -906989         2.98711e+07
   19.53             32079.1             44.6378             -906545         2.98473e+07
   19.55             32072.6             44.5967             -906101         2.98235e+07
   19.57             32066.1             44.5553             -905656         2.97997e+07
   19.59             32059.6             44.5137             -905210         2.97758e+07
   19.61               32053             44.4719             -904764         2.97518e+07
   19.63             32046.5             44.4299             -904318         2.97279e+07
   19.65             32039.9             44.3878             -903870         2.97039e+07
   19.67             32033.3             44.3454             -903422         2.96798e+07
   19.69             32026.7             44.3028             -902974         2.96557e+07
   19.71             32020.1             44.2601             -902525         2.96316e+07
   19.73             32013.4             44.2171             -902075         2.96075e+07
   19.75             32006.8              44.174             -901624         2.95833e+07
   19.77             32000.1             44.1308             -901173          2.9559e+07
   19.79             31993.4             44.0873             -900721         2.95348e+07
   19.81             31986.7             44.0437             -900268         2.95105e+07
   19.83               31980             43.9999             -899815         2.94861e+07
   19.85             31973.3              43.956             -899361         2.94618e+07
   19.87             31966.5              43.912             -898907         2.94374e+07
   19.89             31959.8             43.8677             -898451         2.94129e+07
   19.91               31953             43.8234             -897995         2.93885e+07
   19.93             31946.2             43.7789             -897538         2.93639e+07
   19.95             31939.3             43.7343             -897081         2.93394e+07
   19.97             31932.5             43.6895             -896623         2.93148e+07
   19.99             31925.6             43.6446             -896164         2.92902e+07
